Folder: Senior-Research-Spring-2025-/Data Files/Full/dt csv

Note: README.md
# Senior-Research-Spring-2025-

File: Corrected_Depth_XRD_Data.csv
,file_name,omega,amorphous_percentage,crystalline_percentage,effective_depth,amorphous_percentage_intensity,crystalline_percentage_intensity,effective_depth_intensity,corrected_amorphous_percentage,corrected_crystalline_percentage,weight,corrected_amorphous_percentage_intensity,corrected_crystalline_percentage_intensity,weight_intensity,index_of_refraction,index_of_refraction_intensity,attenuation_coefficient,attenuation_coefficient_intensity,corrected_depth_intensity
0,"MSS dt (0-129, 0.25w, 0D).csv",0.25,0.879648,0.120352,1.02636e-05,0.447312,0.552688,2.72474e-06,0.879648,0.120352,1.0,0.447312,0.552688,1.0,(0.999993-2.6059508626903413e-08j),(0.999993-9.816152348530498e-08j),2125.62,8006.84,1.25479
1,"MSS dt (0-129, 0.5w, 0D).csv",0.5,0.90272,0.0972797,2.4083e-05,0.211495,0.788505,3.89065e-06,0.919856,0.0801439,0.426175,-0.339609,1.33961,0.700329,(0.999993-1.935384271825587e-08j),(0.999992-2.2939869903400408e-07j),1578.65,18711.6,2.50955
2,"MSS dt (0-129, 1w, 0D).csv",1.0,0.766266,0.233734,2.37901e-05,0.140221,0.859779,7.16184e-06,11.9857,-10.9857,1.01231,0.0554512,0.944549,0.543247,(1+1.8261299196575089e-06j),(0.999992-1.6351331328996258e-07j),-148954,13337.5,3.70644
3,"MSS dt (0-129, 2w).csv",2.0,0.674976,0.325024,3.55403e-05,0.121336,0.878664,1.40258e-05,0.490145,0.509855,0.669384,0.101632,0.898368,0.51062,(0.999993-9.10181308742887e-08j),(0.999992-1.5581166879472708e-07j),7424.17,12709.3,6.64428
4,"MSS dt (0-129, 3w, 0D).csv",3.0,0.00114322,0.998857,1.85902e-05,5.45157e-05,0.999945,1.85707e-05,1.41401,-0.414007,1.91178,-0.374229,1.37423,0.755266,(0.999993+6.305723045526703e-08j),(0.999992-2.3517235789688127e-07j),-5143.45,19182.5,9.77774
5,"MSS dt (0-129, 4w).csv",4.0,0.064703,0.935297,2.63997e-05,0.00645447,0.993546,2.49059e-05,0.216004,0.783996,0.704182,0.0252146,0.974785,0.745631,(0.999993-1.367373713552631e-07j),(0.999992-1.6855595394048615e-07j),11153.4,13748.8,12.9339
6,"MSS dt (1-129, 5w, 0D).csv",5.0,0.40025,0.59975,5.03963e-05,0.0259165,0.974084,3.17178e-05,0.7694,0.2306,0.523842,0.0970743,0.902926,0.785235,(0.999993-4.4445886245096894e-08j),(0.999992-1.5657169565399717e-07j),3625.36,12771.2,15.3909
7,"MSS dt (2-129, 6w, 0D).csv",6.0,0.428121,0.571879,6.32135e-05,0.0300376,0.969962,3.8196e-05,0.537709,0.462291,0.79724,0.0502152,0.949785,0.830397,(0.999993-8.308561351206642e-08j),(0.999992-1.6438653201442182e-07j),6777.13,13408.7,17.4762
8,"MSS dt (3-129, 7w, 0D).csv",7.0,0.501642,0.498358,8.38423e-05,0.0421439,0.957856,4.50751e-05,0.726932,0.273068,0.753957,0.109364,0.890636,0.847386,(0.999993-5.152836953340084e-08j),(0.999992-1.5452212924955267e-07j),4203.07,12604.1,19.9479
9,"MSS dt (4-129, 8w).csv",8.0,0.438604,0.561396,8.56419e-05,0.037307,0.962693,5.12258e-05,-2.4983,3.4983,0.978987,0.00186041,0.99814,0.879929,(0.999991-5.894099254871615e-07j),(0.999992-1.7245081100048597e-07j),48077,14066.5,22.8458
10,"MSS dt (5-129, 9w).csv",9.0,0.0654984,0.934502,5.9252e-05,0.00427789,0.995722,5.57357e-05,1.27632,-0.27632,1.44538,-0.37088,1.37088,0.919083,(0.999993+4.009471168428154e-08j),(0.999992-2.3461395665095545e-07j),-3270.45,19137,25.8003
11,"MSS dt (6-129, 10w).csv",10.0,0.374835,0.625165,9.65488e-05,0.0463045,0.953696,6.44962e-05,0.866266,0.133734,0.6137,0.313685,0.686315,0.86417,(0.999993-2.8291270033732794e-08j),(0.999993-1.2044693546020896e-07j),2307.66,9824.62,28.9038
12,"MSS dt (7-129, 11w).csv",11.0,0.322681,0.677319,9.83324e-05,0.039207,0.960793,7.03654e-05,-2.50045,3.50045,0.981861,-0.0387869,1.03879,0.91659,(0.999991-5.897683360405228e-07j),(0.999992-1.7922969044317241e-07j),48106.2,14619.4,31.9845
13,"MSS dt (8-129, 12w).csv",12.0,0.487988,0.512012,0.000139472,0.0500168,0.949983,7.75131e-05,0.883105,0.116895,0.705032,0.156433,0.843567,0.907787,(0.999993-2.548301951456357e-08j),(0.999993-1.4667222517313901e-07j),2078.6,11963.8,34.9214
14,"MSS dt (9-129, 13w).csv",13.0,0.431724,0.568276,0.00013685,0.0440313,0.955969,8.33596e-05,3.4243,-2.4243,1.01916,-0.0353241,1.03532,0.929864,(0.999995+3.983202204402184e-07j),(0.999992-1.7865218652228074e-07j),-32490.2,14572.3,37.8475
15,"MSS dt (10-129, 14w).csv",14.0,0.531283,0.468717,0.000176211,0.0632001,0.9368,9.14151e-05,0.877429,0.122571,0.776627,0.261562,0.738438,0.91188,(0.999993-2.6429534499213276e-08j),(0.999993-1.291396427619639e-07j),2155.81,10533.7,40.9256
16,"MSS dt (11-129, 15w).csv",15.0,0.346106,0.653894,0.000137911,0.0361231,0.963877,9.51514e-05,1.19806,-0.198062,1.27772,-0.626377,1.62638,0.960734,(0.999993+2.7043334251897765e-08j),(0.999992-2.77223980355867e-07j),-2205.87,22612.6,44.0125
17,"MSS dt (12-129, 16w).csv",16.0,0.108855,0.891145,0.000109285,0.0191853,0.980815,9.96462e-05,1.25185,-0.251852,1.26194,-0.339368,1.33937,0.954892,(0.999993+3.60141305774984e-08j),(0.999992-2.293585427928524e-07j),-2937.6,18708.3,46.876
18,"MSS dt (13-129, 17w).csv",17.0,0.0637053,0.936295,0.000110536,0.0111162,0.988884,0.000104864,-3.87926,4.87926,0.988679,-0.142994,1.14299,0.950246,(0.99999-8.197166367189354e-07j),(0.999992-1.966086718189415e-07j),66862.7,16037,49.6153
19,"MSS dt (14-129, 18w).csv",18.0,0.134714,0.865286,0.000126035,0.0227481,0.977252,0.000112106,0.641151,0.358849,0.87703,0.191165,0.808835,0.935396,(0.999993-6.583430093733792e-08j),(0.999993-1.4087994845907912e-07j),5369.97,11491.3,52.0448
20,"MSS dt (15-129, 19w).csv",19.0,0.166565,0.833435,0.00013765,0.0284576,0.971542,0.00011878,0.512163,0.487837,0.915616,0.124364,0.875636,0.943813,(0.999993-8.734600694955982e-08j),(0.999993-1.520205743816057e-07j),7124.64,12400,54.0362
21,"MSS dt (16-129, 20w).csv",20.0,0.177722,0.822278,0.000146486,0.0337396,0.96626,0.00012544,0.351542,0.648458,0.93968,0.127944,0.872056,0.946907,(0.999993-1.1413331972559795e-07j),(0.999993-1.5142352685917656e-07j),9309.63,12351.3,56.2812
22,"MSS dt (17-129, 21w).csv",21.0,1.79213,-0.792131,-0.000174181,0.0720292,0.927971,0.000136657,1.05464,-0.0546433,-0.840996,0.500224,0.499776,0.917919,(0.999993+3.1250333423461265e-09j),(0.999993-8.933726077301159e-08j),-254.903,7287.06,60.1126
23,"MSS dt (18-129, 22w).csv",22.0,0.122563,0.877437,0.000150753,0.0440349,0.955965,0.000138818,1.01754,-0.0175364,-1.15541,-1.72662,2.72662,0.984436,(0.999993-3.0634012342317488e-09j),(0.999991-4.6071556142671477e-07j),249.876,37579.7,63.9184

File: Processed_XRD_Data.csv
,omega,Position,Intensity,amorphous_range,crystalline_range,amorphous_fit_amplitude,amorphous_fit_amplitude_uncertainty,amorphous_fit_mean,amorphous_fit_mean_uncertainty,amorphous_fit_std_dev,amorphous_fit_std_dev_uncertainty,amorphous_fit_background,amorphous_fit_background_uncertainty,chi_squared_amorphous,amorphous_nu,amorphous_fit_amorphous_x_range_used,amorphous_fit_amorphous_y_range_used,crystalline_fit_amplitude,crystalline_fit_amplitude_uncertainty,crystalline_fit_mean,crystalline_fit_mean_uncertainty,crystalline_fit_std_dev,crystalline_fit_std_dev_uncertainty,crystalline_fit_background,crystalline_fit_background_uncertainty,chi_squared_crystalline,crystalline_nu,crystalline_fit_crystalline_x_range_used,crystalline_fit_crystalline_y_range_used,max_amorphous,max_crystalline,amorphous_area,crystalline_area,amorphous_percentage,crystalline_percentage,amorphous_percentage_intensity,crystalline_percentage_intensity,effective_depth,effective_depth_intensity
"MSS dt (0-129, 0.25w, 0D).csv",0.25,"[4.0000e-02 1.2000e-01 2.0000e-01 2.8000e-01 3.6000e-01 4.4000e-01
 4.9000e+01 4.9080e+01 4.9160e+01 4.9240e+01 4.9320e+01 4.9400e+01
 9.7960e+01 9.8040e+01 9.8120e+01 9.8200e+01 9.8280e+01 9.8360e+01
 1.070000e+02 9.700000e+01 1.170000e+02 1.090000e+02 1.200000e+02
 2.800000e+01 2.700000e+01 3.900000e+01 4.700000e+01 3.000000e+01
 3.600000e+01 3.600000e+01 5.000000e+01 3.900000e+01 3.700000e+01
 266.652 252.652 254.652 252.652 245.652
 2.5950e+01 2.6010e+01 2.6070e+01 2.6130e+01 2.6190e+01 2.6250e+01
 6.2670e+01 6.2730e+01 6.2790e+01 6.2850e+01 6.2910e+01 6.2970e+01
 9.9390e+01 9.9450e+01 9.9510e+01 9.9570e+01 9.9630e+01 9.9690e+01
 4.250000e+02 4.310000e+02 4.460000e+02 4.630000e+02 4.480000e+02
 9.100000e+01 9.200000e+01 9.800000e+01 1.200000e+02 1.040000e+02
 4.300000e+01 3.400000e+01 3.700000e+01 4.700000e+01 4.100000e+01
 3.900000e+01 4.800000e+01 3.800000e+01 6.000000e+01 5.100000e+01
 1.480000e+02 1.460000e+02 1.500000e+02 1.250000e+02 1.470000e+02
 8.6800e+00 8.7600e+00 8.8400e+00 8.9200e+00 9.0000e+00 9.0800e+00
 5.7640e+01 5.7720e+01 5.7800e+01 5.7880e+01 5.7960e+01 5.8040e+01
 1.0660e+02 1.0668e+02 1.0676e+02 1.0684e+02 1.0692e+02 1.0700e+02
 1.045000e+03 1.039000e+03 9.900000e+02 1.043000e+03 1.009000e+03
 1.490000e+02 1.470000e+02 1.390000e+02 2.100000e+02 2.800000e+02
 1.250000e+02 1.280000e+02 1.380000e+02 1.320000e+02 1.080000e+02
  153.02  156.02  169.02  105.02  178.02
 3.9400e+01 3.9480e+01 3.9560e+01 3.9640e+01 3.9720e+01 3.9800e+01
 8.8360e+01 8.8440e+01 8.8520e+01 8.8600e+01 8.8680e+01 8.8760e+01
 1.161000e+03 1.177000e+03 1.080000e+03 1.171000e+03 1.135000e+03
 4.570000e+02 3.860000e+02 4.100000e+02 4.180000e+02 4.640000e+02
 2.740000e+02 2.630000e+02 2.820000e+02 2.620000e+02 2.980000e+02
  156.562  126.562  129.562  126.562  184.562
 2.52500e+00 2.53500e+00 2.54500e+00 2.55500e+00 2.56500e+00 2.57500e+00
 8.64500e+00 8.65500e+00 8.66500e+00 8.67500e+00 8.68500e+00 8.69500e+00
 1.47650e+01 1.47750e+01 1.47850e+01 1.47950e+01 1.48050e+01 1.48150e+01
 2.08850e+01 2.08950e+01 2.09050e+01 2.09150e+01 2.09250e+01 2.09350e+01
 2.70050e+01 2.70150e+01 2.70250e+01 2.70350e+01 2.70450e+01 2.70550e+01
 3.31250e+01 3.31350e+01 3.31450e+01 3.31550e+01 3.31650e+01 3.31750e+01
 3.92450e+01 3.92550e+01 3.92650e+01 3.92750e+01 3.92850e+01 3.92950e+01
 4.53650e+01 4.53750e+01 4.53850e+01 4.53950e+01 4.54050e+01 4.54150e+01
 5.14850e+01 5.14950e+01 5.15050e+01 5.15150e+01 5.15250e+01 5.15350e+01
 5.76050e+01 5.76150e+01 5.76250e+01 5.76350e+01 5.76450e+01 5.76550e+01
 6.37250e+01 6.37350e+01 6.37450e+01 6.37550e+01 6.37650e+01 6.37750e+01
 6.98450e+01 6.98550e+01 6.98650e+01 6.98750e+01 6.98850e+01 6.98950e+01
 7.59650e+01 7.59750e+01 7.59850e+01 7.59950e+01 7.60050e+01 7.60150e+01
 8.20850e+01 8.20950e+01 8.21050e+01 8.21150e+01 8.21250e+01 8.21350e+01
 8.82050e+01 8.82150e+01 8.82250e+01 8.82350e+01 8.82450e+01 8.82550e+01
 9.43250e+01 9.43350e+01 9.43450e+01 9.43550e+01 9.43650e+01 9.43750e+01
 1.00445e+02 1.00455e+02 1.00465e+02 1.00475e+02 1.00485e+02 1.00495e+02
 1.06565e+02 1.06575e+02 1.06585e+02 1.06595e+02 1.06605e+02 1.06615e+02
 1.12685e+02 1.12695e+02 1.12705e+02 1.12715e+02 1.12725e+02 1.12735e+02
 1.18805e+02 1.18815e+02 1.18825e+02 1.18835e+02 1.18845e+02 1.18855e+02
 1.24925e+02 1.24935e+02 1.24945e+02 1.24955e+02 1.24965e+02 1.24975e+02
 289268 289557 289643 290878
 2402.05 2304.79 2131.39 2091.72
 1193.99 1167.11 1139.6 1176.07
 933.563 1098.01 956.598 954.679
 1168.39 1208.71 1169.03 1229.18
 1409.62 1449.93 1372.51 1403.22
 1129.36 1109.53 1010.35 1192.71
 731.366 704.491 733.925 717.929
 580.997 634.106 603.393 606.592
 566.281 554.763 546.445 545.805
 549.644 534.927 540.046 525.969
 517.011 533.648 514.452 516.371
 524.689 517.651 493.336 559.882
 1243.26 1202.95 1202.95 1238.78
 538.766 525.329 526.609 543.885
 399.276 397.996 418.472 392.237
 368.562 372.401 343.608 371.762
 392.237 401.195 394.157 392.237
 350.006 318.013 344.247 349.366
 342.968 341.688 357.045 351.926
 390.318 405.675 420.391 392.237
 437.028 400.555 422.311 429.989
 374.961 343.608 363.443 355.765
 301.376 305.216 295.618 309.055
 289.859 293.058 315.454 284.74
 307.775 282.82 280.261 289.859
 301.376 300.737 316.093 318.013
 335.289 312.254 317.373 340.408
 354.485 350.646 360.244 355.765
 374.961 348.726 362.803 377.52
 392.237 415.272 412.073 406.314
 488.217 511.252 500.375 478.619
 19.605 19.615 19.625 19.635 19.645 19.655 19.665 19.675 19.685 19.695
   70.9955   21.7259   77.3941   -3.86868  -55.0579
  287.91  349.337  343.578  346.138  323.742
  426.121  357.015  396.047  319.903  434.439
 53.605 53.615 53.625 53.635 53.645 53.655 53.665 53.675 53.685 53.695
 -414.662 -392.267 -380.109 -418.501
  4381.13  4587.8  4996.68  5599.43
 -467.131 -461.372 -453.694 -439.617
 2.8840e+01 2.8920e+01 2.9000e+01 2.9080e+01 2.9160e+01 2.9240e+01
 7.7800e+01 7.7880e+01 7.7960e+01 7.8040e+01 7.8120e+01 7.8200e+01
 1.2676e+02 1.2684e+02 1.2692e+02 1.2700e+02 1.2708e+02 1.2716e+02
 8.02000e+02 7.50000e+02 8.21000e+02 7.27000e+02 7.90000e+02 7.21000e+02
 5.24000e+02 5.15000e+02 5.20000e+02 5.42000e+02 5.54000e+02 5.99000e+02
  595.387  636.387  651.387  611.387  750.387
  35.44  35.52  35.6   35.68  35.76  35.84  35.92  36.    36.08  36.16
 117.04 117.12 117.2  117.28 117.36 117.44 117.52 117.6  117.68 117.76
 1.57200e+03 1.58800e+03 1.56300e+03 1.63500e+03 1.50400e+03 1.55300e+03
 1.00400e+03 9.18000e+02 9.94000e+02 9.41000e+02 9.60000e+02 9.04000e+02
 1032.03 1014.03  958.03 1083.03 1195.03
  26.63  26.69  26.75  26.81  26.87  26.93  26.99  27.05  27.11  27.17
  87.83  87.89  87.95  88.01  88.07  88.13  88.19  88.25  88.31  88.37
   3918.   3931.   3834.   3881.   3973.   3943.   3903.   3965.   3861.
   1199.   1176.   1181.   1206.   1216.   1197.   1134.   1205.   1192.
 15.17 15.23 15.29 15.35 15.41 15.47 15.53 15.59 15.65 15.71 15.77 15.83
 -514.809 -523.809 -418.809 -502.809
  72.64  72.72  72.8   72.88  72.96  73.04  73.12  73.2   73.28  73.36
   2357.   2319.   2431.   2328.   2281.   2309.   2245.   2332.   2285.
    840.    863.    891.    883.    929.    878.    842.    858.    825.
  -306.337  -336.337  -259.337  -268.337
 87.56 87.64 87.72 87.8  87.88 87.96 88.04 88.12 88.2  88.28 88.36 88.44
    928.    959.    934.    948.    944.    986.    925.    991.    979.
   9.04   9.12   9.2    9.28   9.36   9.44   9.52   9.6    9.68   9.76
  90.64  90.72  90.8   90.88  90.96  91.04  91.12  91.2   91.28  91.36
   2690.   2745.   2861.   2702.   2818.   2760.   2749.   2658.   2720.
   1931.   1790.   1813.   1918.   1866.   1862.   1962.   1801.   1813.
  2658.48  2442.48  2285.48  1883.48
  72.44  72.52  72.6   72.68  72.76  72.84  72.92  73.    73.08  73.16
 6.899000e+03 5.517000e+03 5.435000e+03 5.452000e+03 5.330000e+03
 2.671000e+03 2.730000e+03 2.711000e+03 2.741000e+03 2.825000e+03
 1.600000e+03 1.660000e+03 1.546000e+03 1.557000e+03 1.561000e+03
 40893 42593 40125 33589
  83.84  83.92  84.    84.08  84.16  84.24  84.32  84.4   84.48  84.56
  2595.  2676.  2715.  2632.  2569.  2573.  2513.  2532.  2570.  2690.
  2363.  2420.  2363.  2438.  2432.  2346.  2394.  2394.  2416.  2329.
  54.44  54.52  54.6   54.68  54.76  54.84  54.92  55.    55.08  55.16
  3755.  3942.  4019.  3872.  3902.  3903.  3793.  4047.  3971.  3978.
  2154.  2059.  2051.  1944.  2026.  1954.  1886.  2047.  1908.  1896.
  22.64  22.72  22.8   22.88  22.96  23.04  23.12  23.2   23.28  23.36
 104.24 104.32 104.4  104.48 104.56 104.64 104.72 104.8  104.88 104.96
  2130.  1975.  2128.  1967.  1991.  1914.  1904.  1935.  1919.  1835.
 1088.73 1132.73 1011.73  990.731  948.731
  74.04  74.12  74.2   74.28  74.36  74.44  74.52  74.6   74.68  74.76
  2459.  2437.  2460.  2527.  2512.  2454.  2477.  2411.  2478.  2425.
  2145.  2175.  2181.  2312.  2270.  2304.  2532.  2477.  2604.  2740.
  51.04  51.12  51.2   51.28  51.36  51.44  51.52  51.6   51.68  51.76
  3237.  3321.  3296.  3211.  3364.  3183.  3234.  3160.  3262.  3160.
  2125.  2124.  2265.  2092.  2218.  2239.  2244.  2762.  4023.  6042.
  28.04  28.12  28.2   28.28  28.36  28.44  28.52  28.6   28.68  28.76
 109.64 109.72 109.8  109.88 109.96 110.04 110.12 110.2  110.28 110.36
  1676.  1615.  1463.  1584.  1735.  1550.  1572.  1664.  1549.  1637.
 209.544  78.5437 196.544 110.544 176.544
  77.84  77.92  78.    78.08  78.16  78.24  78.32  78.4   78.48  78.56
  2125.  2114.  2074.  2055.  2018.  2100.  2108.  2160.  2134.  2010.
  2728.  2758.  2662.  2542.  2451.  2389.  2447.  2335.  2424.  2294.
  54.84  54.92  55.    55.08  55.16  55.24  55.32  55.4   55.48  55.56
  3052.  3044.  2945.  2996.  3015.  3007.  3061.  2964.  3100.  3007.
  1841.  1923.  1929.  2059.  2353.  3052.  4337.  6841.  9522. 12001.
  33.44  33.52  33.6   33.68  33.76  33.84  33.92  34.    34.08  34.16
 115.04 115.12 115.2  115.28 115.36 115.44 115.52 115.6  115.68 115.76
  1633.  1568.  1636.  1688.  1560.  1587.  1867.  1701.  1770.  1650.
   10.8423  -57.1577  -17.1577    4.8423  -29.1577
  81.64  81.72  81.8   81.88  81.96  82.04  82.12  82.2   82.28  82.36
  1825.  1805.  1864.  1773.  1834.  1834.  1931.  1796.  1855.  1812.
  499.762  496.762  530.762  503.762
  54.64  54.72  54.8   54.88  54.96  55.04  55.12  55.2   55.28  55.36
  2213.  2308.  2193.  2311.  2219.  2237.  2284.  2319.  2182.  2299.
  1547.  1534.  1747.  1549.  1503.  1568.  1633.  1543.  1723.  1661.
 -1674.1 -1609.1 -1578.1 -1507.1
  90.84  90.92  91.    91.08  91.16  91.24  91.32  91.4   91.48  91.56
  2244.  2255.  2207.  2283.  2223.  2156.  2242.  2259.  2238.  2066.
 38.76 38.84 38.92 39.  ]","[-492.259 -579.259 -470.259 -512.259
  99.7412  52.7412]",579.741,12585.7,1610.26,11527.9,0.122563,0.877437,0.0440349,0.955965,150.753,138.818