Folder: Senior-Research-Spring-2025-/Data Files/Full/p csv

Note: Data Files/Full/p csv/data range.txt
PS E:\Full> & C:/Users/markb/anaconda3/python.exe "e:/Full/XRD Analysis.py"
15.0
Use this format for the 2θ values: 20-30
Enter the 2θ value for the amorphous peak range: 15-27
Enter the 2θ value for the crystalline peak range: 28-32
Crystalline content: 0.8926
Amorphous content: 0.1074
Calculated depth for the mixture: 90.3835 μm
14.0
Use this format for the 2θ values: 20-30
Enter the 2θ value for the amorphous peak range: 18-25
Enter the 2θ value for the crystalline peak range: 26-30
Crystalline content: 0.9007
Amorphous content: 0.0993
Calculated depth for the mixture: 84.5839 μm
13.0
Use this format for the 2θ values: 20-30
Enter the 2θ value for the amorphous peak range: 20-24
Enter the 2θ value for the crystalline peak range: 24-27
Crystalline content: 0.9064
Amorphous content: 0.0936
Calculated depth for the mixture: 78.7160 μm
12.0
Use this format for the 2θ values: 20-30
Enter the 2θ value for the amorphous peak range: 88-92
Enter the 2θ value for the crystalline peak range: 22-26
Crystalline content: 0.9309
Amorphous content: 0.0691
Calculated depth for the mixture: 73.0169 μm
11.0
Use this format for the 2θ values: 20-30
Enter the 2θ value for the amorphous peak range: 88-91
Enter the 2θ value for the crystalline peak range: 19-23
Crystalline content: 0.9047
Amorphous content: 0.0953
Calculated depth for the mixture: 66.7520 μm
10.0
Use this format for the 2θ values: 20-30
Enter the 2θ value for the amorphous peak range: 87-89
Enter the 2θ value for the crystalline peak range: 18-22
Crystalline content: 0.8119
Amorphous content: 0.1881
Calculated depth for the mixture: 59.9292 μm
9.0
Use this format for the 2θ values: 20-30
Enter the 2θ value for the amorphous peak range: 19-25
Enter the 2θ value for the crystalline peak range: 86-90
Crystalline content: 0.9991
Amorphous content: 0.0009
Calculated depth for the mixture: 55.4979 μm
8.0
Use this format for the 2θ values: 20-30
Enter the 2θ value for the amorphous peak range: 18-26
Enter the 2θ value for the crystalline peak range: 83-90
Crystalline content: 0.9029
Amorphous content: 0.0971
Calculated depth for the mixture: 48.6747 μm
7.0
Use this format for the 2θ values: 20-30
Enter the 2θ value for the amorphous peak range: 85-88
Enter the 2θ value for the crystalline peak range: 82-86
Crystalline content: 0.8574
Amorphous content: 0.1426
Calculated depth for the mixture: 42.3393 μm
6.0
Use this format for the 2θ values: 20-30
Enter the 2θ value for the amorphous peak range: 15-30
Enter the 2θ value for the crystalline peak range: 60-64
Crystalline content: 0.8489
Amorphous content: 0.1511
Calculated depth for the mixture: 36.2697 μm
5.0
Use this format for the 2θ values: 20-30
Enter the 2θ value for the amorphous peak range: 15-27
Enter the 2θ value for the crystalline peak range: 58-61
Crystalline content: 0.8783
Amorphous content: 0.1217
Calculated depth for the mixture: 30.3723 μm
3.0
Use this format for the 2θ values: 20-30
Enter the 2θ value for the amorphous peak range: 18-27
En

Note: Data Files/Full/p csv/Peak_Ranges.txt
Omega, Amorphous Range, Crystalline Range
15, 15-39, 27-31
14, 13-38, 25-29
13, 13-36, 23-27
12, 14-38, 21-25
11, 12-37, 19-22
10, 14-35, 18-21
9, 13-34, 15-19
8, 12-32, 14.5-16
7, 14.5-34, 62-66
6, 13-33, 60-63
5, 12-31, 59-61
3, 14-35, 36-38
1, 12-31, 32-34
0.25, 12-35, 31-32.5
0.025, 14-26, 31-32
0.5, 12-36, 31-33
0.05, 14-28, 30.5-32.5
0.005, 14-27, 30-34
0.1, 11-30, 30.5-32.5
0.01, 13-26, 30.5-32.5
4, 11-38, 38-40
2, 12-34, 34-36
16, 15-29, 28-35
17, 15-29, 31-35
18, 18-27, 34-38
19, 18-33, 35-39
20, 20-31, 38-42
21, 20-30, 40-43
22, 21.5-28, 41-45
23, 22.5-29, 44-47
24, 24-27, 46-49
25, 24.5-30, 48-51

Note: README.md
# Senior-Research-Spring-2025-

File: Corrected_Depth_XRD_Data.csv
,file_name,omega,amorphous_percentage,crystalline_percentage,effective_depth,amorphous_percentage_intensity,crystalline_percentage_intensity,effective_depth_intensity,corrected_amorphous_percentage,corrected_crystalline_percentage,weight,corrected_amorphous_percentage_intensity,corrected_crystalline_percentage_intensity,weight_intensity,index_of_refraction,index_of_refraction_intensity,attenuation_coefficient,attenuation_coefficient_intensity,corrected_depth,corrected_depth_intensity
0,"MSS p (full, 0.01w).csv",0.01,0.991458,0.00854221,5.39389e-08,0.778557,0.221443,5.54755e-08,0.991458,0.00854221,1.0,0.778557,0.221443,1.0,(0.999993-1.983469202555925e-07j),(0.999993-1.9285273763453198e-07j),16178.8,15730.6,0.0248398,0.0255475
1,"MSS p (full, 0.025w).csv",0.025,1.04088,-0.0408775,1.33986e-07,0.801736,0.198264,1.3826e-07,1.07418,-0.0741785,0.402572,0.817268,0.182732,0.401241,(0.999993-2.0048163420911304e-07j),(0.999993-1.9385173248915736e-07j),16352.9,15812.1,0.0620126,0.0638254
2,"MSS p (full, 0.05w).csv",0.05,1.10913,-0.109126,2.65628e-07,0.630898,0.369102,2.82969e-07,1.17859,-0.17859,0.504411,0.467673,0.532327,0.488605,(0.999993-2.0317609703003992e-07j),(0.999993-1.848299726026505e-07j),16572.7,15076.2,0.123451,0.127365
3,"MSS p (full, 0.1w).csv",0.1,0.868895,0.131105,5.48129e-07,0.582798,0.417202,5.69678e-07,0.643013,0.356987,0.484608,0.535326,0.464674,0.496717,(0.999993-1.893548499674579e-07j),(0.999993-1.8657586220325862e-07j),15445.3,15218.6,0.244837,0.260115
4,"MSS p (full, 0.25w).csv",0.25,1.16006,-0.160065,1.31952e-06,0.27733,0.72267,1.48659e-06,1.36696,-0.366961,0.4154,0.087542,0.912458,0.383211,(0.999993-2.080372706514243e-07j),(0.999992-1.7502020994591418e-07j),16969.2,14276.1,0.625932,0.662159
5,"MSS p (full, 0.5w).csv",0.5,1.21165,-0.21165,2.6218e-06,0.178614,0.821386,3.01586e-06,1.26392,-0.263919,0.503289,0.0826536,0.917346,0.492925,(0.999993-2.0537812607419737e-07j),(0.999992-1.7489405974861257e-07j),16752.3,14265.8,1.21799,1.3659
6,"MSS p (full, 1w).csv",1.0,1.62204,-0.622039,4.98466e-06,0.163765,0.836235,6.04454e-06,2.0774,-1.0774,0.525974,0.148979,0.851021,0.498939,(0.999994-2.263711065274459e-07j),(0.999993-1.766056751929367e-07j),18464.6,14405.4,2.41604,2.77423
7,"MSS p (full, 2w).csv",2.0,1.26667,-0.266675,1.04127e-05,0.204668,0.795332,1.20156e-05,0.94034,0.05966,0.478708,0.246074,0.753926,0.503059,(0.999993-1.9702776083525703e-07j),(0.999993-1.791113447408432e-07j),16071.2,14609.8,4.61082,5.56535
8,"MSS p (full, 3w).csv",3.0,-4.74157,5.74157,6.36546e-05,0.162697,0.837303,1.81291e-05,-5.91662,6.91662,0.163582,0.0802056,0.919794,0.662779,(0.999989-2.007496452885905e-08j),(0.999992-1.748308865615472e-07j),1637.48,14260.6,7.05334,8.32015
9,"MSS p (full, 4w).csv",4.0,1.23303,-0.233034,2.09011e-05,0.266428,0.733572,2.38034e-05,-7.6624,8.6624,3.04552,0.597839,0.402161,0.761616,(0.999988+2.497692910031245e-08j),(0.999993-1.8818907321941707e-07j),-2037.32,15350.2,9.54925,11.0657
10,"MSS p (full, 5w).csv",5.0,1.66573,-0.665726,2.47629e-05,0.0589565,0.941044,3.06544e-05,4.00759,-3.00759,0.84405,-0.6619,1.6619,0.776511,(0.999995-2.7618217709160326e-07j),(0.999992-1.5567989163004627e-07j),22527.6,12698.5,26.4045,13.8518
11,"MSS p (full, 6w).csv",6.0,1.34714,-0.347138,3.08754e-05,0.0795211,0.920479,3.66531e-05,0.0564906,0.943509,0.802025,0.18461,0.81539,0.836338,(0.999992-1.7421888830286602e-07j),(0.999993-1.7752516389342519e-07j),14210.7,14480.4,50.8337,16.6569
12,"MSS p (full, 7w).csv",7.0,1.11156,-0.111556,3.70839e-05,0.0940819,0.905918,4.2642e-05,-0.0600156,1.06002,0.832583,0.183196,0.816804,0.859553,(0.999992-1.7121229646015234e-07j),(0.999993-1.7748868747182082e-07j),13965.4,14477.4,72.8126,19.3626
13,"MSS p (full, 8w).csv",8.0,5.80952,-4.80952,2.6438e-05,0.0621448,0.937855,4.89268e-05,-10.5554,11.5554,1.40267,-0.154549,1.15455,0.871548,(0.999986+9.963435799930224e-08j),(0.999992-1.687727521552255e-07j),-8126.98,13766.5,88.264,21.9582
14,"MSS p (full, 9w).csv",9.0,10.8546,-9.85461,2.11739e-05,0.0626852,0.937315,5.49907e-05,-14.4834,15.4834,1.24861,0.0670452,0.932955,0.889729,(0.999984+2.0100141755968784e-07j),(0.999992-1.7449126436576508e-07j),-16395.3,14232.9,90.4708,24.7029
15,"MSS p (full, 10w).csv",10.0,36.9158,-35.9158,9.45814e-06,0.0536117,0.946388,6.11238e-05,-10.1846,11.1846,2.2387,-0.0277428,1.02774,0.899661,(0.999986+9.00645616199797e-08j),(0.999992-1.7204513839543013e-07j),-7346.39,14033.4,92.7475,27.8242
16,"MSS p (full, 11w).csv",11.0,5.58065,-4.58065,3.69229e-05,0.0858231,0.914177,6.68453e-05,-5.21035,6.21035,0.256159,0.429944,0.570056,0.914407,(0.999989-3.830123752061086e-08j),(0.999993-1.8385633541675366e-07j),3124.16,14996.8,95.5905,30.9013
17,"MSS p (full, 12w).csv",12.0,34.4018,-33.4018,1.20171e-05,0.0473853,0.952615,7.32521e-05,-8.32567,9.32567,3.07252,-0.353657,1.35366,0.912538,(0.999987+4.209349587592588e-08j),(0.999992-1.6363450263404446e-07j),-3433.48,13347.3,98.4118,33.6209
18,"MSS p (full, 13w).csv",13.0,30.9186,-29.9186,1.4206e-05,0.0463206,0.953679,7.92679e-05,11.7958,-10.7958,0.845915,0.0333563,0.966644,0.924107,(1-4.771677056851384e-07j),(0.999992-1.7362188035978948e-07j),38921.6,14162,99.6635,36.3304
19,"MSS p (full, 14w).csv",14.0,17.3952,-16.3952,2.38544e-05,0.0502597,0.94974,8.51983e-05,-2.51646,3.51646,0.595532,0.102912,0.897088,0.930393,(0.999991-1.0782050250309966e-07j),(0.999992-1.75416859274048e-07j),8794.71,14308.4,100.91,39.0295
20,"MSS p (full, 15w).csv",15.0,6.35921,-5.35921,4.70962e-05,0.0517276,0.948272,9.11292e-05,-4.96763,5.96763,0.506503,0.0728136,0.927186,0.934918,(0.999989-4.4564958011827236e-08j),(0.999992-1.7464012643753433e-07j),3635.08,14245.1,103.471,41.7169
21,"MSS p (12-129, 16w).csv",16.0,0.765193,0.234807,8.77687e-05,0.138853,0.861147,9.58135e-05,-5.71232,6.71232,0.536594,1.83381,-0.833811,0.951111,(0.999989-2.5347285580427947e-08j),(0.999994-2.200849205920454e-07j),2067.53,17951.9,106.176,44.4822
22,"MSS p (13-129, 17w).csv",17.0,0.820322,0.179678,9.24143e-05,0.211885,0.788115,0.000100556,1.86187,-0.861873,0.949731,1.68743,-0.687425,0.952839,(0.999994-2.2080910749670972e-07j),(0.999993-2.1630725674003303e-07j),18011,17643.8,108.249,47.2812
23,"MSS p (14-129, 18w).csv",18.0,0.764832,0.235168,9.84022e-05,0.217514,0.782486,0.000106194,-0.0915686,1.09157,0.939148,0.317917,0.682083,0.946906,(0.999992-1.7039803115148215e-07j),(0.999993-1.8096534160467067e-07j),13899,14761,110.129,50.028
24,"MSS p (15-129, 19w).csv",19.0,0.959014,0.0409862,0.000101042,0.103814,0.896186,0.000113753,8.1964,-7.1964,0.973871,-1.49353,2.49353,0.933549,(0.999997-3.842797973338493e-07j),(0.999992-1.34218740235481e-07j),31344.9,10948,113.231,52.7056
25,"MSS p (16-129, 20w).csv",20.0,0.913074,0.0869263,0.000106789,0.109253,0.890747,0.000119406,0.105365,0.894635,0.946184,0.218713,0.781287,0.952659,(0.999992-1.7548015353666026e-07j),(0.999993-1.7840524923587246e-07j),14313.6,14552.2,116.998,55.3725
26,"MSS p (17-129, 21w).csv",21.0,0.988238,0.0117618,0.000110799,0.115241,0.884759,0.000125003,2.99013,-1.99013,0.963812,0.242968,0.757032,0.955222,(0.999994-2.4992533893040057e-07j),(0.999993-1.790311672164821e-07j),20385.9,14603.2,119.497,58.0549
27,"MSS p (18-129, 22w).csv",22.0,0.790924,0.209076,0.000118873,0.0849628,0.915037,0.000131251,-1.91695,2.91695,0.932082,-0.520822,1.52082,0.952398,(0.999991-1.232916341489248e-07j),(0.999992-1.593205936349201e-07j),10056.7,12995.5,120.74,60.7193
28,"MSS p (19-129, 23w).csv",23.0,0.940952,0.0590476,0.000121553,0.081259,0.918741,0.000136975,7.59433,-6.59433,0.977948,-0.00366332,1.00366,0.958209,(0.999997-3.687425628182351e-07j),(0.999992-1.7266654020514502e-07j),30077.6,14084.1,122.558,63.221
29,"MSS p (20-129, 24w).csv",24.0,0.859799,0.140201,0.000127891,0.0733328,0.926667,0.000142753,-0.696478,1.69648,0.950439,-0.11457,1.11457,0.959525,(0.999992-1.5478756911074775e-07j),(0.999992-1.6980444174756639e-07j),12625.7,13850.6,125.477,65.6785
30,"MSS p (21-129, 25w).csv",25.0,0.922038,0.0779624,0.000131799,0.125303,0.874697,0.000147197,2.9589,-1.9589,0.97035,1.79483,-0.794825,0.969811,(0.999994-2.4911935824273905e-07j),(0.999994-2.1907884581686872e-07j),20320.2,17869.8,128.191,68.2741

File: Processed_XRD_Data.csv
,omega,Position,Intensity,amorphous_range,crystalline_range,amorphous_fit_amplitude,amorphous_fit_amplitude_uncertainty,amorphous_fit_mean,amorphous_fit_mean_uncertainty,amorphous_fit_std_dev,amorphous_fit_std_dev_uncertainty,amorphous_fit_background,amorphous_fit_background_uncertainty,chi_squared_amorphous,amorphous_nu,chi_squared_amorphous_p,amorphous_fit_amorphous_x_range_used,amorphous_fit_amorphous_y_range_used,crystalline_fit_amplitude,crystalline_fit_amplitude_uncertainty,crystalline_fit_mean,crystalline_fit_mean_uncertainty,crystalline_fit_std_dev,crystalline_fit_std_dev_uncertainty,crystalline_fit_background,crystalline_fit_background_uncertainty,chi_squared_crystalline,crystalline_nu,chi_squared_crystalline_p,crystalline_fit_crystalline_x_range_used,crystalline_fit_crystalline_y_range_used,max_amorphous,max_crystalline,amorphous_area,crystalline_area,amorphous_percentage,crystalline_percentage,amorphous_percentage_intensity,crystalline_percentage_intensity,effective_depth,effective_depth_intensity
"MSS p (full, 0.01w).csv",0.01,"[4.0000e-02 1.2000e-01 2.0000e-01 2.8000e-01 3.6000e-01 4.4000e-01
 4.6600e+01 4.6680e+01 4.6760e+01 4.6840e+01 4.6920e+01 4.7000e+01
 9.3160e+01 9.3240e+01 9.3320e+01 9.3400e+01 9.3480e+01 9.3560e+01
 5.010000e+02 5.770000e+02 5.380000e+02 4.950000e+02 5.660000e+02
 7.700000e+01 7.400000e+01 6.900000e+01 7.400000e+01 6.500000e+01
 5.700000e+01 4.900000e+01 4.000000e+01 3.900000e+01 5.800000e+01
 2.060000e+02 1.830000e+02 1.820000e+02 1.840000e+02 1.900000e+02
 1.7800e+01 1.7880e+01 1.7960e+01 1.8040e+01 1.8120e+01 1.8200e+01
 6.4360e+01 6.4440e+01 6.4520e+01 6.4600e+01 6.4680e+01 6.4760e+01
 1.1092e+02 1.1100e+02 1.1108e+02 1.1116e+02 1.1124e+02 1.1132e+02
 3.770000e+02 3.630000e+02 3.840000e+02 3.480000e+02 3.390000e+02
 6.700000e+01 5.800000e+01 6.800000e+01 6.900000e+01 7.400000e+01
 8.200000e+01 6.100000e+01 7.900000e+01 7.200000e+01 6.600000e+01
 487.514 495.514 506.514 564.514 484.514
 3.8920e+01 3.9000e+01 3.9080e+01 3.9160e+01 3.9240e+01 3.9320e+01
 8.5480e+01 8.5560e+01 8.5640e+01 8.5720e+01 8.5800e+01 8.5880e+01
 8.925000e+03 8.832000e+03 8.292000e+03 8.079000e+03 8.131000e+03
 1.160000e+02 1.250000e+02 1.320000e+02 1.160000e+02 1.190000e+02
 6.100000e+01 6.600000e+01 7.500000e+01 6.400000e+01 7.000000e+01
 1.750000e+02 1.640000e+02 1.790000e+02 1.640000e+02 1.530000e+02
 8.6800e+00 8.7600e+00 8.8400e+00 8.9200e+00 9.0000e+00 9.0800e+00
 5.5240e+01 5.5320e+01 5.5400e+01 5.5480e+01 5.5560e+01 5.5640e+01
 1.0180e+02 1.0188e+02 1.0196e+02 1.0204e+02 1.0212e+02 1.0220e+02
 7.980000e+02 8.350000e+02 8.240000e+02 8.240000e+02 8.250000e+02
 1.000000e+02 9.800000e+01 1.270000e+02 1.180000e+02 1.260000e+02
 8.000000e+01 7.900000e+01 8.800000e+01 8.000000e+01 8.200000e+01
 20.6  20.68 20.76 20.84 20.92 21.   21.08 21.16 21.24 21.32 21.4  21.48
 1.6360e+01 1.6440e+01 1.6520e+01 1.6600e+01 1.6680e+01 1.6760e+01
 6.2920e+01 6.3000e+01 6.3080e+01 6.3160e+01 6.3240e+01 6.3320e+01
 1.0948e+02 1.0956e+02 1.0964e+02 1.0972e+02 1.0980e+02 1.0988e+02
 1.282000e+03 1.248000e+03 1.215000e+03 1.250000e+03 1.178000e+03
 1.880000e+02 1.960000e+02 2.230000e+02 1.950000e+02 2.080000e+02
 1.270000e+02 1.360000e+02 1.600000e+02 1.470000e+02 1.360000e+02
  103.736   87.7358  100.736  154.736   40.7358
 2.0200e+01 2.0280e+01 2.0360e+01 2.0440e+01 2.0520e+01 2.0600e+01
 6.6760e+01 6.6840e+01 6.6920e+01 6.7000e+01 6.7080e+01 6.7160e+01
 1.1332e+02 1.1340e+02 1.1348e+02 1.1356e+02 1.1364e+02 1.1372e+02
 8.510000e+02 8.670000e+02 8.590000e+02 8.350000e+02 7.800000e+02
 2.330000e+02 2.530000e+02 2.560000e+02 2.220000e+02 2.160000e+02
 2.000000e+02 1.890000e+02 2.100000e+02 1.970000e+02 1.950000e+02
  157.522  140.522  201.522  178.522
 1.5880e+01 1.5960e+01 1.6040e+01 1.6120e+01 1.6200e+01 1.6280e+01
 6.2440e+01 6.2520e+01 6.2600e+01 6.2680e+01 6.2760e+01 6.2840e+01
 1.0900e+02 1.0908e+02 1.0916e+02 1.0924e+02 1.0932e+02 1.0940e+02
 2.163000e+03 2.178000e+03 2.282000e+03 2.235000e+03 2.139000e+03
 4.260000e+02 4.200000e+02 4.410000e+02 4.040000e+02 4.570000e+02
 2.780000e+02 3.060000e+02 2.420000e+02 3.060000e+02 2.630000e+02
  102.695  71.6952  66.6952  50.6952
 1.6840e+01 1.6920e+01 1.7000e+01 1.7080e+01 1.7160e+01 1.7240e+01
 6.3400e+01 6.3480e+01 6.3560e+01 6.3640e+01 6.3720e+01 6.3800e+01
 1.0996e+02 1.1004e+02 1.1012e+02 1.1020e+02 1.1028e+02 1.1036e+02
 2.112000e+03 2.107000e+03 2.034000e+03 2.145000e+03 2.074000e+03
 5.060000e+02 5.580000e+02 5.420000e+02 5.540000e+02 4.990000e+02
 3.730000e+02 3.460000e+02 3.310000e+02 3.290000e+02 3.510000e+02
  295.049  289.049  293.049  314.049
 1.5400e+01 1.5480e+01 1.5560e+01 1.5640e+01 1.5720e+01 1.5800e+01
 6.1960e+01 6.2040e+01 6.2120e+01 6.2200e+01 6.2280e+01 6.2360e+01
 1.0852e+02 1.0860e+02 1.0868e+02 1.0876e+02 1.0884e+02 1.0892e+02
 4.194000e+03 4.072000e+03 4.031000e+03 4.144000e+03 4.050000e+03
 9.620000e+02 9.050000e+02 9.450000e+02 9.080000e+02 9.250000e+02
 6.430000e+02 6.190000e+02 6.070000e+02 6.470000e+02 6.060000e+02
  900.809  941.809  841.809  912.809
 1.2520e+01 1.2600e+01 1.2680e+01 1.2760e+01 1.2840e+01 1.2920e+01
 5.9080e+01 5.9160e+01 5.9240e+01 5.9320e+01 5.9400e+01 5.9480e+01
 1.0564e+02 1.0572e+02 1.0580e+02 1.0588e+02 1.0596e+02 1.0604e+02
 3.04300e+03 3.11900e+03 3.16100e+03 3.16700e+03 2.89700e+03 2.95300e+03
 1.13100e+03 8.50000e+02 7.35000e+02 7.55000e+02 7.49000e+02 7.87000e+02
 2.26000e+03 3.48300e+03 4.35500e+03 4.43400e+03 3.83100e+03 2.61300e+03
  1424.33  1441.33  1502.33  1306.33
  39.44  39.52  39.6   39.68  39.76  39.84  39.92  40.    40.08  40.16
 117.04 117.12 117.2  117.28 117.36 117.44 117.52 117.6  117.68 117.76
 2.80210e+04 3.05540e+04 2.77150e+04 2.04450e+04 1.18220e+04 6.41000e+03
 2.04600e+03 2.03000e+03 1.95100e+03 1.94700e+03 1.96600e+03 1.83000e+03
 22.56 22.64 22.72 22.8  22.88 22.96 23.04 23.12 23.2  23.28 23.36 23.44
  28.44  28.52  28.6   28.68  28.76  28.84  28.92  29.    29.08  29.16
 106.04 106.12 106.2  106.28 106.36 106.44 106.52 106.6  106.68 106.76
   2007.   1925.   1944.   1968.   1882.   1978.   1865.   1930.   2043.
   1389.   1254.   1280.   1357.   1258.   1203.   1343.   1386.   1286.
  -693.62   275.38  1670.38  3239.38  3724.38
  75.84  75.92  76.    76.08  76.16  76.24  76.32  76.4   76.48  76.56
   3150   2984   3028   3081   2942   2958   3003   2925   2822   2931
   1007    955    983   1047    988    951    995   1014    978   1004
  -14.6073 -145.607  -28.6073  -73.6073]",10758.8,225.126,63.8764,0.00406047,0.168051,0.00406047,1408.41,28.6351,727.129,48,4.12202e-122,"[62.   62.08 62.16 62.24 62.32 62.4  62.48 62.56 62.64 62.72 62.8  62.88
  68.04  68.12  68.2   68.28  68.36  68.44  68.52  68.6   68.68  68.76
   3988.   4066.   4016.   3944.   4032.   4076.   4086.   4083.   4143.
   3147.   2955.   2941.   2879.   2839.   2638.   2612.   2585.   2467.
 2195.38 2146.38 2196.38 2040.38 2139.38
  59.44  59.52  59.6   59.68  59.76  59.84  59.92  60.    60.08  60.16
 5.867000e+03 5.980000e+03 5.916000e+03 5.807000e+03 5.757000e+03
 3.235000e+03 3.493000e+03 4.103000e+03 5.932000e+03 9.036000e+03
 1.819500e+04 2.086800e+04 2.425500e+04 3.167300e+04 6.528500e+04
 2.486000e+03 2.711000e+03 2.573000e+03 2.621000e+03 2.771000e+03
  17.24  17.32  17.4   17.48  17.56  17.64  17.72  17.8   17.88  17.96
  94.84  94.92  95.    95.08  95.16  95.24  95.32  95.4   95.48  95.56
[...]
 23.6  23.68 23.76 23.84 23.92 24.   24.08 24.16 24.24 24.32 24.4  24.48
  10.44  10.52  10.6   10.68  10.76  10.84  10.92  11.    11.08  11.16
  88.04  88.12  88.2   88.28  88.36  88.44  88.52  88.6   88.68  88.76
  2867.  2897.  2894.  2861.  2840.  2862.  2808.  2981.  2982.  3102.
  2383.  2372.  2343.  2441.  2324.  2451.  2416.  2572.  2513.  2458.
  10.64  10.72  10.8   10.88  10.96  11.04  11.12  11.2   11.28  11.36
  88.24  88.32  88.4   88.48  88.56  88.64  88.72  88.8   88.88  88.96
  2788.  2725.  2686.  2729.  2696.  2756.  2770.  2829.  2787.  2799.
  2349.  2464.  2518.  2494.  2403.  2431.  2437.  2469.  2438.  2514.
  2194.37  2211.37  2054.37  1855.37
  85.24  85.32  85.4   85.48  85.56  85.64  85.72  85.8   85.88  85.96
  2716.  2758.  2730.  2837.  2933.  3343.  3664.  3549.  3534.  3713.
  2378.  2358.  2343.  2365.  2336.  2330.  2494.  2518.  2565.  2568.
  1362.29  1110.29  1261.29]",3021.29,57092.3,-40275.6,31203.8,4.43965,-3.43965,0.0502597,0.94974,51.6109,85.1983
  87.84  87.92  88.    88.08  88.16  88.24  88.32  88.4   88.48  88.56
  2674.  2614.  2540.  2562.  2486.  2594.  2490.  2456.  2482.  2536.
  2524.  2432.  2506.  2438.  2436.  2521.  2477.  2486.  2408.  2477.
 47975.9 46932.9 45173.9 43515.9
  84.84  84.92  85.    85.08  85.16  85.24  85.32  85.4   85.48  85.56
  2496.  2443.  2494.  2501.  2532.  2542.  2454.  2480.  2599.  2397.
  2372.  2281.  2253.  2303.  2293.  2466.  2351.  2306.  2379.  2397.
  25.84  25.92  26.    26.08  26.16  26.24  26.32  26.4   26.48  26.56
 103.44 103.52 103.6  103.68 103.76 103.84 103.92 104.   104.08 104.16
  2060.  2030.  2025.  2028.  2082.  1995.  2006.  2023.  2001.  1979.
 3743.78 3820.78 3927.78 3724.78 4032.78
  54.84  54.92  55.    55.08  55.16  55.24  55.32  55.4   55.48  55.56
  2919.  2886.  3145.  3164.  3228.  3264.  3286.  3193.  3423.  3372.
  2043.  2128.  2077.  2015.  2134.  1953.  2045.  2031.  2058.  2053.
  21.44  21.52  21.6   21.68  21.76  21.84  21.92  22.    22.08  22.16
  99.04  99.12  99.2   99.28  99.36  99.44  99.52  99.6   99.68  99.76
  2326.  2325.  2261.  2317.  2319.  2345.  2325.  2297.  2420.  2390.
 32.4  32.48 32.56 32.64 32.72 32.8  32.88 32.96]","[-690.314 -668.314 -632.314 -708.314 -606.314
  50.44  50.52  50.6   50.68  50.76  50.84  50.92  51.    51.08  51.16
 128.04 128.12 128.2  128.28 128.36 128.44 128.52 128.6  128.68 128.76
  2086.  2053.  2169.  2169.  2109.  2067.  2064.  2054.  2030.  2015.
"MSS p (17-129, 21w).csv",21.0,"[ 17.04  17.12  17.2   17.28  17.36  17.44  17.52  17.6   17.68  17.76
  94.64  94.72  94.8   94.88  94.96  95.04  95.12  95.2   95.28  95.36
  2435.  2493.  2377.  2370.  2402.  2339.  2428.  2498.  2451.  2450.
  404.375  517.375  635.375  648.375  585.375
  69.24  69.32  69.4   69.48  69.56  69.64  69.72  69.8   69.88  69.96
 2097. 1996. 2125. 1950. 1993. 2058. 1970. 2016. 2059. 2129. 2048. 2071.
 26.36 26.44 26.52 26.6  26.68 26.76 26.84 26.92 27.   27.08 27.16 27.24
  71.04  71.12  71.2   71.28  71.36  71.44  71.52  71.6   71.68  71.76
 1958. 1967. 1920. 1942. 2076. 2029. 2014. 2085. 2008. 1963. 2002. 1998.
  348.879  346.879  441.879  437.879  488.879
  77.64  77.72  77.8   77.88  77.96  78.04  78.12  78.2   78.28  78.36
 1867. 1822. 1755. 1813. 1864. 1833. 1733. 1772. 1767. 1704. 1851. 1703.
 6049.75 5897.75 5143.75 3991.75 2656.75
  95.44  95.52  95.6   95.68  95.76  95.84  95.92  96.    96.08  96.16
 1525. 1496. 1455. 1460. 1483. 1665. 1669. 1564. 1748. 1644. 1705. 1695.
   34.9693  -75.0307  -45.0307]",766.969,5353.97,-8844.66,-481.174,0.948404,0.0515958,0.125303,0.874697,131.345,147.197