Folder: Senior-Research-Spring-2025-/Data Files/Full/p csv (part 2)

File: Processed_XRD_Data_safe.csv
omega,Position,Intensity,amorphous_range,crystalline_range,amorphous_fit,crystalline_fit,amorphous_area,crystalline_area,amorphous_percentage,crystalline_percentage,effective_depth
15.0,"No.
1        11.04
2        11.12
3        11.20
4        11.28
5        11.36
         ...
1471    128.64
1472    128.72
1473    128.80
1474    128.88
1475    128.96
Name: Pos. [°2θ], Length: 1475, dtype: float64","No.
1       2992.0
2       2856.0
3       2908.0
4       2997.0
5       2946.0
         ...
1471    2680.0
1472    2781.0
1473    2722.0
1474    2708.0
1475    2764.0
Name: Intensity [Counts], Length: 1475, dtype: float64","[20.0, 30.0]","[28.5, 30.5]","{'amplitude': -5162.5, 'mean': 27.5949, 'std_dev': 1.85056, 'background': 5246.07, 'uncertainty': array([344.289, 0.107843, 0.107173, 18.7058]), 'amorphous_x_range_used': [20.0, 20.08, 20.16, 20.24, 20.32, 20.4, 20.48, 20.56, 20.64, 20.72, 20.8, 20.88, 20.96, 21.04, 21.12, 21.2, 21.28, 21.36, 21.44, 21.52, 21.6, 21.68, 21.76, 21.84, 21.92, 22, 22.08, 22.16, 22.24, 22.32, 22.4, 22.48, 22.56, 22.64, 22.72, 22.8, 22.88, 22.96, 23.04, 23.12, 23.2, 23.28, 23.36, 23.44, 23.52, 23.6, 23.68, 23.76, 23.84, 23.92, 24, 24.08, 24.16, 24.24, 24.32, 24.4, 24.48, 24.56, 24.64, 24.72, 24.8, 24.88, 24.96, 25.04, 25.12, 25.2, 25.28, 25.36, 25.44, 25.52, 25.6, 25.68, 25.76, 25.84, 25.92, 26, 26.08, 26.16, 26.24, 26.32, 26.4, 26.48, 26.56, 26.64, 26.72, 26.8, 26.88, 26.96, 27.04, 27.12, 27.2, 27.28, 27.36, 27.44, 27.52, 27.6, 27.68, 27.76, 27.84, 27.92, 28, 28.08, 28.16, 28.24, 28.32, 28.4, 28.48], 'amorphous_y_range_used': No.
113    4978.0
114    4975.0
115    4977.0
116    4985.0
117    5102.0
        ...
215    4116.0
216    4210.0
217    4195.0
218    4247.0
219    4198.0
Name: Intensity [Counts], Length: 107, dtype: float64}","{'amplitude': 45897.4, 'mean': 29.4477, 'std_dev': 0.342079, 'background': 398.319, 'uncertainty': array([3820.18, 0.0115673, 0.0203403, 2037.73]), 'crystalline_x_range_used': [28.64, 28.72, 28.8, 28.88, 28.96, 29.04, 29.12, 29.2, 29.28, 29.36, 29.44, 29.52, 29.6, 29.68, 29.76, 29.84, 29.92, 30, 30.08, 30.16, 30.24, 30.32, 30.4, 30.48], 'crystalline_y_range_used': No.
220     4557.0
221     4595.0
222     5290.0
223     8681.0
224    15436.0
225    26700.0
226    39847.0
227    48102.0
228    51105.0
229    50832.0
230    49789.0
231    48030.0
232    46372.0
233    43969.0
234    38999.0
235    31080.0
236    22767.0
237    13976.0
238     7836.0
239     4851.0
240     4210.0
241     4117.0
242     4036.0
243     3888.0
Name: Intensity [Counts], dtype: float64}",40957,46138.9,0.887689,0.112311,81.082
14.0,"No.
1        10.04
2        10.12
3        10.20
4        10.28
5        10.36
         ...
1483    128.60
1484    128.68
1485    128.76
1486    128.84
1487    128.92
Name: Pos. [°2θ], Length: 1487, dtype: float64","No.
1       3243.0
2       3291.0
3       3348.0
4       3458.0
5       3171.0
         ...
1483    2701.0
1484    2819.0
1485    2715.0
1486    2682.0
1487    2647.0
Name: Intensity [Counts], Length: 1487, dtype: float64","[13.0, 38.0]","[26.5, 28.5]","{'amplitude': 33551.3, 'mean': 22.5653, 'std_dev': 4.9001, 'background': 2942.01, 'uncertainty': array([541.963, 0.0327856, 0.0543262, 20.1149]), 'amorphous_x_range_used': [13.0, 13.08, 13.16, 13.24, 13.32, 13.4, 13.48, 13.56, 13.64, 13.72, 13.8, 13.88, 13.96, 14.04, 14.12, 14.2, 14.28, 14.36, 14.44, 14.52, 14.6, 14.68, 14.76, 14.84, 14.92, 15, 15.08, 15.16, 15.24, 15.32, 15.4, 15.48, 15.56, 15.64, 15.72, 15.8, 15.88, 15.96, 16.04, 16.12, 16.2, 16.28, 16.36, 16.44, 16.52, 16.6, 16.68, 16.76, 16.84, 16.92, 17, 17.08, 17.16, 17.24, 17.32, 17.4, 17.48, 17.56, 17.64, 17.72, 17.8, 17.88, 17.96, 18.04, 18.12, 18.2, 18.28, 18.36, 18.44, 18.52, 18.6, 18.68, 18.76, 18.84, 18.92, 19, 19.08, 19.16, 19.24, 19.32, 19.4, 19.48, 19.56, 19.64, 19.72, 19.8, 19.88, 19.96, 20.04, 20.12, 20.2, 20.28, 20.36, 20.44, 20.52, 20.6, 20.68, 20.76, 20.84, 20.92, 21, 21.08, 21.16, 21.24, 21.32, 21.4, 21.48, 21.56, 21.64, 21.72, 21.8, 21.88, 21.96, 22.04, 22.12, 22.2, 22.28, 22.36, 22.44, 22.52, 22.6, 22.68, 22.76, 22.84, 22.92, 23, 23.08, 23.16, 23.24, 23.32, 23.4, 23.48, 23.56, 23.64, 23.72, 23.8, 23.88, 23.96, 24.04, 24.12, 24.2, 24.28, 24.36, 24.44, 24.52, 24.6, 24.68, 24.76, 24.84, 24.92, 25, 25.08, 25.16, 25.24, 25.32, 25.4, 25.48, 25.56, 25.64, 25.72, 25.8, 25.88, 25.96, 26.04, 26.12, 26.2, 26.28, 26.36, 26.44, 28.44, 28.52, 28.6, 28.68, 28.76, 28.84, 28.92, 29, 29.08, 29.16, 29.24, 29.32, 29.4, 29.48, 29.56, 29.64, 29.72, 29.8, 29.88, 29.96, 30.04, 30.12, 30.2, 30.28, 30.36, 30.44, 30.52, 30.6, 30.68, 30.76, 30.84, 30.92, 31, 31.08, 31.16, 31.24, 31.32, 31.4, 31.48, 31.56, 31.64, 31.72, 31.8, 31.88, 31.96, 32.04, 32.12, 32.2, 32.28, 32.36, 32.44, 32.52, 32.6, 32.68, 32.76, 32.84, 32.92, 33, 33.08, 33.16, 33.24, 33.32, 33.4, 33.48, 33.56, 33.64, 33.72, 33.8, 33.88, 33.96, 34.04, 34.12, 34.2, 34.28, 34.36, 34.44, 34.52, 34.6, 34.68, 34.76, 34.84, 34.92, 35, 35.08, 35.16, 35.24, 35.32, 35.4, 35.48, 35.56, 35.64, 35.72, 35.8, 35.88, 35.96, 36.04, 36.12, 36.2, 36.28, 36.36, 36.44, 36.52, 36.6, 36.68, 36.76, 36.84, 36.92, 37, 37.08, 37.16, 37.24, 37.32, 37.4, 37.48, 37.56, 37.64, 37.72, 37.8, 37.88], 'amorphous_y_range_used': No.
38     3226.0
39     3153.0
40     3210.0
41     3157.0
42     3295.0
        ...
346    2819.0
347    2911.0
348    2855.0
349    2837.0
350    2818.0
Name: Intensity [Counts], Length: 288, dtype: float64}","{'amplitude': 51651, 'mean': 27.3569, 'std_dev': 0.336298, 'background': 769.503, 'uncertainty': array([4056.08, 0.0108443, 0.019023, 2184.89]), 'crystalline_x_range_used': [26.52, 26.6, 26.68, 26.76, 26.84, 26.92, 27, 27.08, 27.16, 27.24, 27.32, 27.4, 27.48, 27.56, 27.64, 27.72, 27.8, 27.88, 27.96, 28.04, 28.12, 28.2, 28.28, 28.36], 'crystalline_y_range_used': No.
207     5331.0
208     5502.0
209     5601.0
210     7760.0
211    14147.0
212    24170.0
213    39524.0
214    51594.0
215    57244.0
216    60029.0
217    58493.0
218    55838.0
219    53783.0
220    51768.0
221    46457.0
222    38549.0
223    28973.0
224    19330.0
225    11056.0
226     6398.0
227     5080.0
228     4755.0
229     4625.0
230     4600.0
Name: Intensity [Counts], dtype: float64}",105863,52647.5,0.502684,0.497316,79.8427
13.0,"No.
1         9.04
2         9.12
3         9.20
4         9.28
5         9.36
         ...
1496    128.64
1497    128.72
1498    128.80
1499    128.88
1500    128.96
Name: Pos. [°2θ], Length: 1500, dtype: float64","No.
1       3627.0
2       3647.0
3       3682.0
4       3680.0
5       3786.0
         ...
1496    2814.0
1497    2742.0
1498    2673.0
1499    2677.0
1500    2740.0
[...]
          ...
1608        208.0
1609        208.0
1610        202.0
1611        207.0
1612        167.0
Name: Intensity [Counts], Length: 1612, dtype: float64","[13.0, 26.0]","[30.5, 32.0]","{'amplitude': 7972.04, 'mean': 18.667, 'std_dev': 5.54275, 'background': -4.84245, 'uncertainty': array([2925.73, 0.0686045, 0.836401, 127.323]), 'amorphous_x_range_used': No.
163    13.00
164    13.08
165    13.16
166    13.24
167    13.32
       ...
321    25.64
322    25.72
323    25.80
324    25.88
325    25.96
Name: Pos. [°2θ], Length: 163, dtype: float64, 'amorphous_y_range_used': No.
163    465.0
164    423.0
165    411.0
166    408.0
167    435.0
       ...
321    263.0
322    249.0
323    247.0
324    238.0
325    230.0
Name: Intensity [Counts], Length: 163, dtype: float64}","{'amplitude': 13.0981, 'mean': 31.2805, 'std_dev': 0.139573, 'background': 132.751, 'uncertainty': array([4.35934, 0.03837125, 0.04405242, 4.10441]), 'crystalline_x_range_used': No.
382    30.52
383    30.60
384    30.68
385    30.76
386    30.84
387    30.92
388    31.00
389    31.08
390    31.16
391    31.24
392    31.32
393    31.40
394    31.48
395    31.56
396    31.64
397    31.72
398    31.80
399    31.88
400    31.96
Name: Pos. [°2θ], dtype: float64, 'crystalline_y_range_used': No.
382    141.0
383    144.0
384    133.0
385    151.0
386    141.0
387    154.0
388    137.0
389    146.0
390    163.0
391    159.0
392    166.0
393    178.0
394    137.0
395    127.0
396    125.0
397    117.0
398    114.0
399    128.0
400    125.0
Name: Intensity [Counts], dtype: float64}",5936.8,204.26,0.965594,0.0344057,0.054121
7.0,"No.
1         3.04
2         3.12
3         3.20
4         3.28
5         3.36
         ...
1571    128.64
1572    128.72
1573    128.80
1574    128.88
1575    128.96
Name: Pos. [°2θ], Length: 1575, dtype: float64","No.
1       136331
2       130739
3       127712
4       125865
5       124628
         ...
1571      1678
1572      1541
1573      1513
1574      1401
1575      1503
Name: Intensity [Counts], Length: 1575, dtype: int64","[13.0, 30.0]","[63.0, 65.0]","{'amplitude': 4196.76, 'mean': 21.6381, 'std_dev': 1.60038, 'background': 3867.8, 'uncertainty': array([2144.98, 0.668177, 0.771354, 178.107]), 'amorphous_x_range_used': No.
126    13.04
127    13.12
128    13.20
129    13.28
130    13.36
       ...
334    29.68
335    29.76
336    29.84
337    29.92
338    30.00
Name: Pos. [°2θ], Length: 213, dtype: float64, 'amorphous_y_range_used': No.
126     3672
127     5369
128     8581
129    12581
130    15680
       ...
334     2701
335     2759
336     2616
337     2705
338     2620
Name: Intensity [Counts], Length: 213, dtype: int64}","{'amplitude': 11475.8, 'mean': 63.8764, 'std_dev': 0.175192, 'background': 1515.88, 'uncertainty': array([80.8078, 0.00104115, 0.0011828, 59.2016]), 'crystalline_x_range_used': No.
751    63.04
752    63.12
753    63.20
754    63.28
755    63.36
756    63.44
757    63.52
758    63.60
759    63.68
760    63.76
761    63.84
762    63.92
763    64.00
764    64.08
765    64.16
766    64.24
767    64.32
768    64.40
769    64.48
770    64.56
771    64.64
772    64.72
773    64.80
774    64.88
775    64.96
Name: Pos. [°2θ], dtype: float64, 'crystalline_y_range_used': No.
751     1463
752     1637
753     1767
754     1905
755     2001
756     2423
757     4591
758     8944
759    15557
760    22734
761    27065
762    26413
763    22180
764    14898
765     8559
766     4520
767     2302
768     1955
769     1838
770     1671
771     1497
772     1414
773     1428
774     1263
775     1320
Name: Intensity [Counts], dtype: int64}",69794.7,14386.3,0.793877,0.206123,38.6571

File: Processed_XRD_Data_with_some_graphs.csv
,omega,Position,Intensity,amorphous_range,crystalline_range,amorphous_fit_amplitude,amorphous_fit_amplitude_uncertainty,amorphous_fit_mean,amorphous_fit_mean_uncertainty,amorphous_fit_std_dev,amorphous_fit_std_dev_uncertainty,amorphous_fit_background,amorphous_fit_background_uncertainty,amorphous_fit_amorphous_x_range_used,amorphous_fit_amorphous_y_range_used,crystalline_fit_amplitude,crystalline_fit_amplitude_uncertainty,crystalline_fit_mean,crystalline_fit_mean_uncertainty,crystalline_fit_std_dev,crystalline_fit_std_dev_uncertainty,crystalline_fit_background,crystalline_fit_background_uncertainty,crystalline_fit_crystalline_x_range_used,crystalline_fit_crystalline_y_range_used,amorphous_area,crystalline_area,amorphous_percentage,crystalline_percentage,effective_depth
"MSS p (full, 0.01w).csv",0.01,[4.0000e-02 1.2000e-01 2.0000e-01 ... 1.2876e+02 1.2884e+02 1.2892e+02],"[2.281857e+06 1.344978e+06 6.025790e+05 ... 2.020000e+02 2.070000e+02
 20.2  20.28 20.36 20.44 20.52 20.6  20.68 20.76 20.84 20.92 21.   21.08
 454. 490. 454. 464. 450. 514. 455. 537. 493. 509. 486. 478. 458. 497.
 230.]",45.6083,13.3157,31.112,0.0551876,0.41199,0.08860447,113.544,5.95885,"[30.52 30.6  30.68 30.76 30.84 30.92 31.   31.08 31.16 31.24 31.32 31.4
 17.88 17.96 18.04 18.12 18.2  18.28 18.36 18.44 18.52 18.6  18.68 18.76
 26.52 26.6  26.68 26.76 26.84 26.92 27.   27.08 27.16 27.24 27.32 27.4
 464. 476. 491. 463. 450. 479. 422. 397. 428. 404. 346. 367. 410. 377.
 15.96 16.04 16.12 16.2  16.28 16.36 16.44 16.52 16.6  16.68 16.76 16.84
 24.6  24.68 24.76 24.84 24.92 25.   25.08 25.16 25.24 25.32 25.4  25.48
 873. 849. 846. 915. 904. 959. 904. 861. 886. 875. 895. 865. 869. 823.
 272. 241. 241. 225. 186. 203. 190. 206. 208. 206. 207.]",9136.8,578.371,0.936699,0.0633013,0.27163
 17.72 17.8  17.88 17.96 18.04 18.12 18.2  18.28 18.36 18.44 18.52 18.6
 26.36 26.44 26.52 26.6  26.68 26.76 26.84 26.92 27.   27.08 27.16 27.24
  825.  851.  799.  849.  825.  832.  857.  923.  835.  850.  859.  945.
  661.  683.  671.  610.  665.  627.  596.  576.  588.  575.  576.  590.
"MSS p (full, 0.25w).csv",0.25,[4.0000e-02 1.2000e-01 2.0000e-01 ... 1.2876e+02 1.2884e+02 1.2892e+02],"[2.279273e+06 1.360637e+06 5.971890e+05 ... 2.960000e+02 2.990000e+02
 1167. 1134. 1174. 1164. 1211. 1149. 1199. 1231. 1171. 1284. 1266. 1306.
  624.  635.  615.  588.  599.  573.  598.  581.  567.  538.  588.  571.
  451.  498.  537.  479.  510.  504.  478.  454.  534.  497.  521.  480.
 1140. 1197. 1151. 1198. 1207. 1188. 1171. 1175. 1142. 1084. 1126. 1143.
  481.  480.  490.  492.  451.  500.  484.  486.  467.  432.  424.  407.
 13.96 14.04 14.12 14.2  14.28 14.36 14.44 14.52 14.6  14.68 14.76 14.84
 22.6  22.68 22.76 22.84 22.92 23.   23.08 23.16 23.24 23.32 23.4  23.48
  812.  835.  840.  841.  811.  900.  804.  803.  857.  881.  826.  902.
 2270. 2327. 2273. 2349. 2215. 2355. 2312. 2219. 2283. 2229. 2163. 2178.
  858.  880.  858.  814.  832.  797.  873.  800.  822.  786.]",2858.55,43.9548,32.9816,0.001935375,0.136589,0.00211131,703.207,36.47,"[32.04 32.12 32.2  32.28 32.36 32.44 32.52 32.6  32.68 32.76 32.84 32.92
 14.92 15.   15.08 15.16 15.24 15.32 15.4  15.48 15.56 15.64 15.72 15.8
 23.56 23.64 23.72 23.8  23.88 23.96 24.04 24.12 24.2  24.28 24.36 24.44
 32.2  32.28 32.36 32.44 32.52 32.6  32.68 32.76 32.84 32.92 33.   33.08
 2134. 2185. 2221. 2200. 2257. 2237. 2201. 2285. 2342. 2340. 2410. 2324.
 1137. 1090. 1133. 1216. 1133. 1170. 1085. 1128. 1121. 1066. 1031. 1068.
 55.88 55.96]","[  624.   610.   605.   644.   653.   606.   642.   633.   654.   624.
 17.88 17.96 18.04 18.12 18.2  18.28 18.36 18.44 18.52 18.6  18.68 18.76
 26.52 26.6  26.68 26.76 26.84 26.92 27.   27.08 27.16 27.24 27.32 27.4
 2421. 2462. 2362. 2433. 2486. 2423. 2490. 2533. 2549. 2461. 2471. 2625.
 3835. 3639. 3786. 3752. 3596. 3631. 3619. 3634. 3598. 3458. 3476. 3530.
 1723. 1763. 1744. 1717. 1792. 1670. 1715. 1626. 1521. 1602. 1500. 1650.
 1.951360e+06 3.135552e+06 3.955511e+06 3.247690e+06 2.023044e+06
 15.8  15.88 15.96 16.04 16.12 16.2  16.28 16.36 16.44 16.52 16.6  16.68
 24.44 24.52 24.6  24.68 24.76 24.84 24.92 25.   25.08 25.16 25.24 25.32
 33.08 33.16 33.24 33.32 33.4  33.48 33.56 33.64 33.72 33.8  33.88 33.96
 1939. 1959. 2000. 1940. 2016. 2031. 2087. 2091. 2071. 2078. 2069. 2065.
 3103. 3043. 3119. 3161. 3167. 2897. 2953. 2901. 3058. 3001. 2894. 2953.
 1266. 1339. 1400. 1431. 1410. 1291. 1305. 1360. 1413. 1424. 1271. 1342.
 58.92 59.   59.08 59.16 59.24 59.32 59.4  59.48 59.56 59.64 59.72 59.8
"MSS p (full, 5w).csv",5,[  1.04   1.12   1.2  ... 128.8  128.88 128.96],[631313. 746421. 822223. ...   1772.   1754.   1783.],"[12.0, 31.0]","[59.0, 61.0]",22550.1,429.782,21.4805,0.0250245,3.37586,0.0458062,3104.07,23.2185,"[12.   12.08 12.16 12.24 12.32 12.4  12.48 12.56 12.64 12.72 12.8  12.88
 20.64 20.72 20.8  20.88 20.96 21.04 21.12 21.2  21.28 21.36 21.44 21.52
 29.28 29.36 29.44 29.52 29.6  29.68 29.76 29.84 29.92 30.   30.08 30.16
 5349. 5391. 5352. 5600. 5330. 5470. 5565. 5457. 5627. 5629. 5716. 5571.
 3417. 3282. 3392. 3328. 3352. 3333. 3333. 3305. 3195. 3196. 3222. 3137.
 14.92 15.   15.08 15.16 15.24 15.32 15.4  15.48 15.56 15.64 15.72 15.8
 23.56 23.64 23.72 23.8  23.88 23.96 24.04 24.12 24.2  24.28 24.36 24.44
 32.2  32.28 32.36 32.44 32.52 32.6  32.68 32.76 32.84 32.92 33.  ]","[3035. 3151. 3158. 3160. 3196. 3194. 3085. 3195. 3175. 3146. 3227. 3169.
 5375. 5280. 5260. 5338. 5410. 5354. 5323. 5242. 5081. 5288. 5311. 5212.
 2698. 2758. 2737. 2663. 2709. 2589. 2634. 2725. 2562. 2567. 2608. 2517.
"MSS p (full, 7w).csv",7,[  3.04   3.12   3.2  ... 128.8  128.88 128.96],[136331 130739 127712 ...   1513   1401   1503],"[14.5, 34.0]","[62.0, 66.0]",25152.8,452.647,21.4662,0.0285563,4.15237,0.0511882,2314.61,20.8719,"[14.56 14.64 14.72 14.8  14.88 14.96 15.04 15.12 15.2  15.28 15.36 15.44
 23.2  23.28 23.36 23.44 23.52 23.6  23.68 23.76 23.84 23.92 24.   24.08
 31.84 31.92 32.   32.08 32.16 32.24 32.32 32.4  32.48 32.56 32.64 32.72
 4810 4844 4642 4667 4701 4727 4666 4718 4637 4507 4666 4540 4433 4547
 2347 2357 2238 2310 2326 2279 2336 2337 2344 2175 2259 2334 2171 2346
  1289  1255  1225]",68905.9,17209.5,0.750247,0.249753,38.8837
 4415. 4449. 4384. 4454. 4411. 4442. 4423. 4421. 4441. 4466. 4528. 4445.
 2512. 2520. 2502. 2513. 2411. 2562. 2518. 2505. 2375. 2384. 2458. 2358.
 17.84 17.92 18.   18.08 18.16 18.24 18.32 18.4  18.48 18.56 18.64 18.72
 26.48 26.56 26.64 26.72 26.8  26.88 26.96 27.04 27.12 27.2  27.28 27.36
  5679.  5604.  5797.  5848.  5930.  6073.  5902.  5993.  6089.  5996.
  8003.  8189.  7919.  7925.  7978.  8132.  8010.  8012.  8107.  7894.
  4865.  4753.  4879.  4853.  4804.  4718.  4616.  4769.  4540.  4628.
 88.88 88.96]","[6.642000e+03 7.005000e+03 7.293000e+03 7.818000e+03 8.242000e+03
 5056. 5250. 5324. 5081. 5301. 5297. 5377. 5285. 5484. 5445. 5496. 5491.
 5385. 5456. 5231. 5385. 5382. 5322. 5286. 5236. 5120. 5109. 5136. 5131.
 11834. 21025. 35260. 53085. 66932. 73638. 74855. 71781. 68715. 63527.
 5866. 5695. 5811. 5885. 5800. 5826. 5943. 5994. 5985. 6104. 6006. 6146.
 4240. 4249. 4373. 4275. 4309. 4192. 4423. 4179. 4184. 4300. 4045. 3987.
  8076.  8483. 11779. 20519. 34744. 53687. 67091. 74174. 75880. 72552.
 6417. 6632. 6710. 5853. 5827. 5746. 5765. 5780. 5679. 5632. 5533. 5568.
[...]
 6188. 6273. 6204. 6348. 6113. 6229. 6298. 6328. 6279. 6050. 6160. 6113.
 3230. 3276. 3171. 3275. 3158. 3130. 3205. 3118. 3210. 3208. 3187. 3080.
 3958. 3962. 4066. 3936. 3998. 4000. 4090. 4079. 4155. 4031. 4163. 4112.
 5340. 5263. 5217. 5204. 5265. 5165. 4127. 4226. 4065. 4111. 4155. 4088.
 2925. 2857. 2869. 2817. 2835. 2819. 2911. 2855. 2837. 2818.]",46029.6,1320.33,27.3549,0.007944172,0.314364,0.008843725,4232.21,510.612,"[25, 25.08, 25.16, 25.24, 25.32, 25.4, 25.48, 25.56, 25.64, 25.72, 25.8, 25.88, 25.96, 26.04, 26.12, 26.2, 26.28, 26.36, 26.44, 26.52, 26.6, 26.68, 26.76, 26.84, 26.92, 27, 27.08, 27.16, 27.24, 27.32, 27.4, 27.48, 27.56, 27.64, 27.72, 27.8, 27.88, 27.96, 28.04, 28.12, 28.2, 28.28, 28.36, 28.44, 28.52, 28.6, 28.68, 28.76, 28.84, 28.92]","[ 5114.  5088.  5086.  5067.  5082.  5095.  5060.  5135.  5129.  5004.
 4607. 4649. 4610. 4454. 4541. 4640. 4656. 4760. 4765. 4953. 4876. 4688.
 3626. 3454. 3468. 3437. 3351. 3405. 3306. 3324. 3230. 3412. 3285. 3366.
  4595.  5290.  8681. 15436. 26700. 39847. 48102. 51105. 50832. 49789.
  4117.  4036.  3888.  3866.  3739.  3688.  3711.  3696.  3923.]",94152.9,54205.4,0.424283,0.575717,86.3601
,,,,,,,,,,,,,,,,,,,,,,,,,,,,,,
,,,,,0.529826,0.291958,,0.004253536,,0.209894,,0,2.67998,,,0.291958,,0.001773833,,0.215064,,0.05248033,,,,,,,,
,,,,,,0.0705991,,0.002687305,,0.0391578,,0.116297,,,,0.100394,,0.000290625,,0.0842633,,0.0424645,,,,,,,,
,,,,,,0.0754235,,0.002306272,,0.0395878,,0.121026,,,,0.0368715,,0.000158514,,0.0364503,,0.02193848,,,,,,,,
,,,,,,0.0505571,,0.003327981,,0.0360247,,0.029208,,,,0.0417773,,0.00020667,,0.0391875,,0.0341985,,,,,,,,
,,,,,,0.0183992,,0.00148856,,0.01402879,,0.01431131,,,,0.0222444,,8.37464E-05,,0.0199412,,0.0494086,,,,,,,,
,,,,,,0.0165804,,0.001373327,,0.0124179,,0.0127694,,,,0.0168076,,6.69935E-05,,0.016843,,0.042508,,,,,,,,
,,,,,,0.0217237,,0.001374113,,0.0159548,,0.0180313,,,,0.0153766,,5.86805E-05,,0.0154574,,0.0518624,,,,,,,,
,,,,,,0.0282417,,0.002148919,,0.02113609,,0.0232927,,,,0.0129106,,3.38232E-05,,0.0139874,,0.0847244,,,,,,,,
,,,,,,0.08677658,,0.005475377,,0.0543069,,0.0684793,,,,0.0101652,,2.45829E-05,,0.0107856,,0,-1.29532,,,,,,,
,,,,,,0.0585458,,0.005370718,,0.0399016,,0.04654637,,,,0.0126267,,3.47172E-05,,0.0137877,,0.0651605,,,,,,,,
,,,,,,0.019059,,0.001164986,,0.0135688,,0.007480022,,,,0.0110086,,2.70193E-05,,0.0105819,,0.0943359,,,,,,,,
,,,,,,0.0219305,,0.001420921,,0.0147921,,0.0108137,,,,0.02773211,,7.29732E-05,,0.0287211,,0.100902,,,,,,,,
,,,,,,0.0179959,,0.001330293,,0.0123275,,0.009017483,,,,0.004836455,,1.3521E-05,,0.005139428,,0.0203315,,,,,,,,
,,,,,,0.09852012,,0.003912085,,0.0534156,,0.05129587,,,,0.0123587,,9.82706E-05,,0.0107633,,0.0618647,,,,,,,,
,,,,,,0.0129395,,0.000225653,,0.01459505,,0.0171163,,,,0.006374389,,1.05772E-05,,0.006703982,,0,-54.0615,,,,,,,
,,,,,,0.0136928,,0.001270739,,0.0101508,,0.006328196,,,,0.029723,,0.000352579,,0.0278576,,0.109524,,,,,,,,
,,,,,,0.0235807,,0.002331974,,0.0189897,,0.0106613,,,,0.0310895,,0.000363125,,0.0298489,,0.118741,,,,,,,,
,,,,,,0.01296252,,0.001425691,,0.0111386,,0.005820953,,,,0.0272827,,0.000315424,,0.0269552,,0.09368,,,,,,,,
,,,,,,0.0209456,,0.001878168,,0.0139993,,0.008477023,,,,0.02824433,,0.000301162,,0.0277375,,0.107446,,,,,,,,
,,,,,,0.0166749,,0.001624601,,0.0111133,,0.006801556,,,,0.0286843,,0.000290411,,0.0281321,,0.120649,,,,,,,,
,,,,,,0.0222815,,0.002375818,,0.0178044,,0.007400816,,,,0.0305828,,0.000289341,,0.0297744,,0.138935,,,,,,,,