Folder: Senior-Research-Spring-2025-/Data Files/Full/p01 csv

Note: README.md
# Senior-Research-Spring-2025-

File: Corrected_Depth_XRD_Data.csv
,file_name,omega,amorphous_percentage,crystalline_percentage,effective_depth,amorphous_percentage_intensity,crystalline_percentage_intensity,effective_depth_intensity,corrected_amorphous_percentage,corrected_crystalline_percentage,weight,corrected_amorphous_percentage_intensity,corrected_crystalline_percentage_intensity,weight_intensity,index_of_refraction,index_of_refraction_intensity,attenuation_coefficient,attenuation_coefficient_intensity,corrected_depth,corrected_depth_intensity
0,"MSS p (10-35, 0.005w)_01.csv",0.005,1.0869,-0.0868984,2.66387e-08,1.02906,-0.0290603,2.68381e-08,1.0869,-0.0868984,1.0,1.02906,-0.0290603,1.0,(0.999993-2.0080988739629516e-07j),(0.999993-1.9931730014675062e-07j),16379.7,16257.9,0.0122676,0.0123594
1,"MSS p (10-35, 0.05w)_01.csv",0.05,0.994608,0.00539244,2.69584e-07,0.898301,0.101699,2.73003e-07,0.984488,0.015512,0.098814,0.884045,0.115955,0.098307,(0.999993-1.981670553721221e-07j),(0.999993-1.9557500490328524e-07j),16164.1,15952.7,0.123956,0.125446
2,"MSS p (10-35, 0.1w)_01.csv",0.1,0.949502,0.0504977,5.42349e-07,0.516767,0.483233,5.74894e-07,0.904923,0.095077,0.497067,0.171741,0.828259,0.474876,(0.999993-1.961137789876071e-07j),(0.999993-1.771930645814489e-07j),15996.6,14453.3,0.248268,0.251405
3,"MSS p (6-129, 0.25w)_01.csv",0.25,0.907033,0.0929671,1.36344e-06,0.317374,0.682626,1.4781e-06,0.878981,0.121019,0.397779,0.19046,0.80954,0.388941,(0.999993-1.9544431511903665e-07j),(0.999993-1.7767615149255487e-07j),15942,14492.7,0.625165,0.665992
4,"MSS p (10-35, 0.5w)_01.csv",0.5,0.893605,0.106395,2.73169e-06,0.25931,0.74069,2.98086e-06,0.880224,0.119776,0.499122,0.202198,0.797802,0.495864,(0.999993-1.9547640193908155e-07j),(0.999993-1.779790654054093e-07j),15944.6,14517.4,1.25537,1.35922
5,"MSS p (10-35, 1w)_01.csv",1.0,0.78772,0.21228,5.54048e-06,0.134382,0.865618,6.07055e-06,0.684742,0.315258,0.493042,0.013854,0.986146,0.491036,(0.999993-1.9043171585482615e-07j),(0.999992-1.731185971435248e-07j),15533.1,14120.9,2.5155,2.74342
6,"MSS p (6-129, 2w)_01.csv",2.0,0.855215,0.144785,1.09802e-05,0.217244,0.782756,1.19937e-05,0.923959,0.0760408,0.504587,0.302168,0.697832,0.506144,(0.999993-1.9660503322522277e-07j),(0.999993-1.805589183990887e-07j),16036.7,14727.8,5.09608,5.58171
7,"MSS p (10-60, 3w)_01.csv",3.0,0.846704,0.153296,1.64847e-05,0.238732,0.761268,1.79303e-05,0.829726,0.170274,0.666084,0.282145,0.717855,0.668909,(0.999993-1.9417321700006855e-07j),(0.999993-1.8004218745210787e-07j),15838.3,14685.7,7.6136,8.32791
8,"MSS p (6-129, 4w)_01.csv",4.0,0.875151,0.124849,2.18893e-05,0.273744,0.726256,2.37784e-05,0.961919,0.0380806,0.753097,0.38109,0.61891,0.754055,(0.999993-1.9758464481069704e-07j),(0.999993-1.8259558437423957e-07j),16116.6,14894,10.1149,11.0515
9,"MSS p (6-129, 5w)_01.csv",5.0,0.500443,0.499557,2.87734e-05,0.0689877,0.931012,3.06089e-05,-0.691006,1.69101,0.760747,-0.64382,1.64382,0.776848,(0.999992-1.5492877580027744e-07j),(0.999992-1.5614647566364441e-07j),12637.2,12736.6,12.6336,13.7768
10,"MSS p (6-129, 6w)_01.csv",6.0,0.642594,0.357406,3.38402e-05,0.0958458,0.904154,3.65649e-05,1.44984,-0.449844,0.850273,0.233873,0.766127,0.83711,(0.999993-2.101761692191927e-07j),(0.999993-1.7879646521494406e-07j),17143.7,14584.1,15.1592,16.5007
11,"MSS p (6-129, 7w)_01.csv",7.0,0.66394,0.33606,3.93397e-05,0.109755,0.890245,4.25438e-05,0.795287,0.204713,0.860205,0.194818,0.805182,0.859466,(0.999993-1.932844759463488e-07j),(0.999993-1.7778859715768183e-07j),15765.8,14501.9,17.6596,19.2016
12,"MSS p (6-129, 8w)_01.csv",8.0,0.708202,0.291798,4.46568e-05,0.145943,0.854057,4.83274e-05,1.03569,-0.0356864,0.880935,0.412144,0.587856,0.880325,(0.999993-1.9948829713708771e-07j),(0.999993-1.8339697170494443e-07j),16271.9,14959.3,20.1318,21.8767
13,"MSS p (6-129, 9w)_01.csv",9.0,0.641747,0.358253,5.06502e-05,0.147827,0.852173,5.43064e-05,0.146592,0.853408,0.881671,0.163055,0.836945,0.889903,(0.999993-1.7654407634446742e-07j),(0.999993-1.7696891736943328e-07j),14400.4,14435,22.7931,24.6752
14,"MSS p (6-129, 10w)_01.csv",10.0,0.581968,0.418032,5.66855e-05,0.135105,0.864895,6.03944e-05,0.0802884,0.919712,0.89353,0.0216165,0.978384,0.899195,(0.999992-1.7483302247788174e-07j),(0.999992-1.7331891743197207e-07j),14260.8,14137.3,25.9295,27.7872
15,"MSS p (10-35, 11w)_01.csv",11.0,-0.432819,1.43282,7.23819e-05,1.3193,-0.319303,5.65565e-05,-4.09759,5.09759,0.783145,-17.3156,18.3156,1.06786,(0.99999-6.701743153682235e-08j),(0.999982+2.7409018071310603e-07j),5466.48,-22357,28.982,30.8541
16,"MSS p (10-35, 12w)_01.csv",12.0,0.493766,0.506234,6.87032e-05,0.107101,0.892899,7.26089e-05,-17.7378,18.7378,1.05354,-4.16378,5.16378,0.77892,(0.999982+2.8498590543518883e-07j),(0.99999-6.530925702020814e-08j),-23245.7,5327.15,31.279,33.5543
17,"MSS p (10-35, 13w)_01.csv",13.0,0.509886,0.490114,7.41675e-05,0.105613,0.894387,7.85768e-05,0.712572,0.287428,0.926326,0.0874995,0.9125,0.924051,(0.999993-1.91149914559158e-07j),(0.999992-1.7501911434658164e-07j),15591.7,14276,33.5676,36.2445
18,"MSS p (12-37, 14w)_01.csv",14.0,0.581187,0.418813,7.89812e-05,0.111335,0.888665,8.44338e-05,1.67976,-0.679759,0.939052,0.188106,0.811894,0.930632,(0.999993-2.1610942781603253e-07j),(0.999993-1.7761540374878986e-07j),17627.6,14487.7,36.0224,38.9373
19,"MSS p (15-40, 15w)_01.csv",15.0,0.579434,0.420566,8.4518e-05,0.109143,0.890857,9.03602e-05,0.55442,0.44558,0.934489,0.0779145,0.922086,0.934413,(0.999993-1.8706861029216062e-07j),(0.999992-1.7477175958735525e-07j),15258.8,14255.8,38.4902,41.6203
20,"MSS p (15-40, 16w)_01.csv",16.0,0.842193,0.157807,8.6872e-05,0.274862,0.725138,9.39437e-05,10.2765,-9.27648,0.972903,4.45358,-3.45358,0.961855,(0.999999-4.3795887829385393e-07j),(0.999995-2.876915138991041e-07j),35723.4,23466.4,40.8965,44.2372
21,"MSS p (15-40, 17w)_01.csv",17.0,0.776485,0.223515,9.29566e-05,0.210613,0.789387,0.000100574,-0.161666,1.16167,0.934544,-0.699671,1.69967,0.934072,(0.999992-1.685890695294299e-07j),(0.999992-1.547051599387693e-07j),13751.5,12619,43.2646,46.813
22,"MSS p (15-40, 18w)_01.csv",18.0,0.727584,0.272416,9.88961e-05,0.218842,0.781158,0.000106174,-0.0377378,1.03774,0.939942,0.366639,0.633361,0.947262,(0.999992-1.7178720491991976e-07j),(0.999993-1.8222266441611013e-07j),14012.3,14863.5,45.7452,49.4132
23,"MSS p (17-41, 19w)_01.csv",19.0,0.4827,0.5173,0.000107748,0.112273,0.887727,0.000113612,-2.2532,3.2532,0.917846,-1.40893,2.40893,0.934531,(0.999991-1.1461434739707839e-07j),(0.999992-1.3640187704294024e-07j),9348.87,11126,48.3917,52.0533
24,"MSS p (18-42, 20w)_01.csv",20.0,0.437741,0.562259,0.000113906,0.109329,0.890671,0.000119404,-0.348873,1.34887,0.945935,0.0515848,0.948415,0.951486,(0.999992-1.63757967817638e-07j),(0.999992-1.7409228884894751e-07j),13357.4,14200.4,51.026,54.6855
25,"MSS p (19-44, 21w)_01.csv",21.0,0.331969,0.668031,0.000121147,0.109341,0.890659,0.000125112,-1.33188,2.33188,0.940229,0.109588,0.890412,0.954384,(0.999992-1.3839026986782436e-07j),(0.999992-1.7558913785851214e-07j),11288.2,14322.5,53.6655,57.3481
26,"MSS p (20-48, 22w)_01.csv",22.0,0.219117,0.780883,0.000128704,0.0941643,0.905836,0.000131073,-1.59012,2.59012,0.941287,-0.224338,1.22434,0.954518,(0.999991-1.3172596684635517e-07j),(0.999992-1.6697174615633094e-07j),10744.6,13619.6,56.2875,59.9929
27,"MSS p (21-48, 23w)_01.csv",23.0,0.189971,0.810029,0.000134812,0.0894109,0.910589,0.000136811,-0.424147,1.42415,0.954691,-0.0191771,1.01918,0.958061,(0.999992-1.6181541948659976e-07j),(0.999992-1.7226618709548394e-07j),13199,14051.4,62.439,66.2986
28,"MSS p (22-50, 24w)_01.csv",24.0,0.0564067,0.943593,0.000143111,0.0734908,0.926509,0.00014275,-2.11333,3.11333,0.942012,-0.293235,1.29323,0.958395,(0.999991-1.1822395988454255e-07j),(0.999992-1.651937777054263e-07j),9643.3,13474.5,69.1808,72.8358
29,"MSS p (21-129, 25w)_01.csv",25.0,0.210687,0.789313,0.000145377,0.127278,0.872722,0.000147154,9.95591,-8.95591,0.984415,1.87057,-0.870568,0.97007,(0.999999-4.29686189940959e-07j),(0.999994-2.2103350237274096e-07j),35048.7,18029.3,73.6051,75.3973

File: Processed_XRD_Data.csv
,omega,Position,Intensity,amorphous_range,crystalline_range,amorphous_fit_amplitude,amorphous_fit_amplitude_uncertainty,amorphous_fit_mean,amorphous_fit_mean_uncertainty,amorphous_fit_std_dev,amorphous_fit_std_dev_uncertainty,amorphous_fit_background,amorphous_fit_background_uncertainty,chi_squared_amorphous,amorphous_nu,chi_squared_amorphous_p,amorphous_fit_amorphous_x_range_used,amorphous_fit_amorphous_y_range_used,crystalline_fit_amplitude,crystalline_fit_amplitude_uncertainty,crystalline_fit_mean,crystalline_fit_mean_uncertainty,crystalline_fit_std_dev,crystalline_fit_std_dev_uncertainty,crystalline_fit_background,crystalline_fit_background_uncertainty,chi_squared_crystalline,crystalline_nu,chi_squared_crystalline_p,crystalline_fit_crystalline_x_range_used,crystalline_fit_crystalline_y_range_used,max_amorphous,max_crystalline,amorphous_area,crystalline_area,amorphous_percentage,crystalline_percentage,amorphous_percentage_intensity,crystalline_percentage_intensity,effective_depth,effective_depth_intensity
"MSS p (10-35, 0.005w)_01.csv",0.005,"[10.005 10.015 10.025 10.035 10.045 10.055 10.065 10.075 10.085 10.095
 300. 304. 281. 341. 299. 318. 305. 310. 305. 287. 319. 300. 301. 284.
 327.098 364.098 380.098 388.098 296.098
 24.305 24.315 24.325 24.335 24.345 24.355 24.365 24.375 24.385 24.395
 18.505 18.515 18.525 18.535 18.545 18.555 18.565 18.575 18.585 18.595
 171.525 143.525 196.525 161.525 177.525
  693.  676.  717.  696.  702.  701.  740.  707.  657.  665.  664.  685.
 29.805 29.815 29.825 29.835 29.845 29.855 29.865 29.875 29.885 29.895
  190.463  157.463  177.463  183.463
  21.665  21.675  21.685  21.695  21.705  21.715  21.725  21.735  21.745
  53.975  53.985  53.995  54.005  54.015  54.025  54.035  54.045  54.055
  86.285  86.295  86.305  86.315  86.325  86.335  86.345  86.355  86.365
 118.595 118.605 118.615 118.625 118.635 118.645 118.655 118.665 118.675
  396.  406.  414.  434.  414.  410.  417.  393.  407.  429.  368.  398.
  160.  190.  197.  159.  181.  193.  200.  207.  179.  202.  185.  196.
  261.  260.  282.  276.  283.  285.  288.  271.  258.  265.  272.  281.
  129.383  152.383  150.383  124.383
  85.3829  108.383  64.3829  131.383
 31.205 31.215 31.225 31.235 31.245 31.255 31.265 31.275 31.285 31.295
 23.405 23.415 23.425 23.435 23.445 23.455 23.465 23.475 23.485 23.495
  651.178  697.178  667.178  643.178
 13.005 13.015 13.025 13.035 13.045 13.055 13.065 13.075 13.085 13.095
  539.  515.  512.  473.  619.  547.  485.  542.  493.  521.  540.  555.
  127.735  121.735  138.735  95.7354
  24.2688  9.26877  69.2688  41.2688
  37.235  37.245  37.255  37.265  37.275  37.285  37.295  37.305  37.315
  69.545  69.555  69.565  69.575  69.585  69.595  69.605  69.615  69.625
 101.855 101.865 101.875 101.885 101.895 101.905 101.915 101.925 101.935
   949.   958.   969.   976.   941.   978.   941.   901.  1020.   948.
   628.   664.   612.   582.   600.   607.   623.   610.   573.   622.
   437.   450.   414.   451.   474.   453.   438.   470.   481.   477.
   502.   466.   500.   460.   457.   493.   486.   523.   487.   463.
  158.648  190.648  189.648  235.648
  378.648  438.648  441.648  366.648
 24.605 24.615 24.625 24.635 24.645 24.655 24.665 24.675 24.685 24.695
 2.088000e+03 2.169000e+03 2.200000e+03 2.180000e+03 2.176000e+03
 4.863000e+03 4.963000e+03 4.891000e+03 5.042000e+03 5.004000e+03
 1.059000e+03 1.074000e+03 1.103000e+03 1.127000e+03 1.111000e+03
 22.405 22.415 22.425 22.435 22.445 22.455 22.465 22.475 22.485 22.495
  2104.56  2139.56  2091.56  2112.56
"MSS p (6-129, 4w)_01.csv",4.0,"[  6.005   6.015   6.025   6.035   6.045   6.055   6.065   6.075   6.085
  38.315  38.325  38.335  38.345  38.355  38.365  38.375  38.385  38.395
  70.625  70.635  70.645  70.655  70.665  70.675  70.685  70.695  70.705
 102.935 102.945 102.955 102.965 102.975 102.985 102.995 103.005 103.015
  1835.  1820.  1787.  1795.  1915.  1852.  1825.  1875.  1838.  1871.
   963.   935.   950.   918.   966.  1000.   951.   941.   991.  1009.
   936.   940.   985.   891.   952.   934.   974.   972.   911.   944.
   713.   746.   649.   740.   742.   779.   737.   737.   741.   763.
  724.088  732.088  803.088  671.088
  1289.09  1327.09  1217.09  1388.09
  1771.4  1396.4  1224.4  1183.4
  36.785  36.795  36.805  36.815  36.825  36.835  36.845  36.855  36.865
  69.095  69.105  69.115  69.125  69.135  69.145  69.155  69.165  69.175
 101.405 101.415 101.425 101.435 101.445 101.455 101.465 101.475 101.485
  3325.  3333.  3358.  3437.  3259.  3369.  3366.  3292.  3280.  3433.
  1967.  1980.  2007.  1880.  1970.  1996.  2040.  1939.  1948.  2062.
  1932.  1941.  1923.  2006.  1972.  1977.  1880.  1989.  1896.  1851.
  5316.  5350.  5240.  4874.  4891.  4786.  4741.  4570.  4477.  4299.
  641.018  520.018  440.018  557.018
  53.0176  15.0176  65.0176 -15.9824
  28.145  28.155  28.165  28.175  28.185  28.195  28.205  28.215  28.225
  60.455  60.465  60.475  60.485  60.495  60.505  60.515  60.525  60.535
  92.765  92.775  92.785  92.795  92.805  92.815  92.825  92.835  92.845
 125.075 125.085 125.095 125.105 125.115 125.125 125.135 125.145 125.155
  2038.  2058.  2104.  2131.  2121.  2013.  2073.  2029.  2095.  2158.
  1630.  1672.  1796.  1808.  1837.  1794.  2025.  2043.  2051.  2011.
   990.  1018.  1052.  1005.   993.  1065.  1034.   969.   987.  1052.
 29.405 29.415 29.425 29.435 29.445 29.455 29.465 29.475 29.485 29.495
  1244.35  1205.35  1268.35  1201.35
  13.205  13.215  13.225  13.235  13.245  13.255  13.265  13.275  13.285
  45.515  45.525  45.535  45.545  45.555  45.565  45.575  45.585  45.595
  77.825  77.835  77.845  77.855  77.865  77.875  77.885  77.895  77.905
 110.135 110.145 110.155 110.165 110.175 110.185 110.195 110.205 110.215
  4732.  4646.  4544.  4803.  4650.  4578.  4647.  4685.  4684.  4599.
  2152.  2278.  2204.  2309.  2200.  2280.  2330.  2191.  2227.  2253.
  1178.  1238.  1170.  1170.  1268.  1198.  1242.  1187.  1195.  1284.
  1337.  1316.  1294.  1461.  1303.  1494.  1582.  1405.  1375.  1351.
  2289.85  2548.85  2395.85  2323.85
 65.505 65.515 65.525 65.535 65.545 65.555 65.565 65.575 65.585 65.595
  28.955  28.965  28.975  28.985  28.995  29.005  29.015  29.025  29.035
  61.265  61.275  61.285  61.295  61.305  61.315  61.325  61.335  61.345
  93.575  93.585  93.595  93.605  93.615  93.625  93.635  93.645  93.655
 125.885 125.895 125.905 125.915 125.925 125.935 125.945 125.955 125.965
  5625.  5487.  5360.  4926.  4917.  4729.  4507.  4390.  4187.  4010.
  1145.  1084.  1046.  1077.  1038.  1104.  1069.  1165.  1066.  1010.
   877.   890.   948.   972.   892.   936.   961.   920.   917.   931.
 30.805 30.815 30.825 30.835 30.845 30.855 30.865 30.875 30.885 30.895
  355.611  411.611  524.611  378.611
  23.375  23.385  23.395  23.405  23.415  23.425  23.435  23.445  23.455
  55.685  55.695  55.705  55.715  55.725  55.735  55.745  55.755  55.765
  87.995  88.005  88.015  88.025  88.035  88.045  88.055  88.065  88.075
 120.305 120.315 120.325 120.335 120.345 120.355 120.365 120.375 120.385
 7.074000e+03 7.296000e+03 7.103000e+03 7.207000e+03 7.204000e+03
 3.486000e+03 3.579000e+03 3.509000e+03 3.488000e+03 3.529000e+03
 3.397000e+03 3.493000e+03 3.485000e+03 3.423000e+03 3.439000e+03
 2.092000e+03 2.065000e+03 2.065000e+03 2.121000e+03 2.105000e+03
[...]
  1577.4  1643.4  1940.4  2165.4
  33.275  33.285  33.295  33.305  33.315  33.325  33.335  33.345  33.355
  65.585  65.595  65.605  65.615  65.625  65.635  65.645  65.655  65.665
  97.895  97.905  97.915  97.925  97.935  97.945  97.955  97.965  97.975
  5089.  5202.  5137.  5058.  5199.  5204.  5102.  5200.  5175.  5192.
  3223.  3224.  3128.  3221.  3131.  3330.  3103.  3166.  3165.  3056.
  2228.  2226.  2185.  2181.  2134.  2217.  2227.  2253.  2173.  2196.
  2034.  2140.  2127.  2082.  2048.  2084.  2113.  2137.  2049.  2047.
  1491.46  1577.46  1526.46  1373.46
 -59.5404 -14.5404 -110.54  19.4596
 30.705 30.715 30.725 30.735 30.745 30.755 30.765 30.775 30.785 30.795
 18.805 18.815 18.825 18.835 18.845 18.855 18.865 18.875 18.885 18.895
  2506.55  2614.55  2412.55  2633.55
 -18055.3 -18386.3 -17922.3 -18128.3
  5860.  5750.  5923.  5911.  5856.  5701.  5802.  5826.  5877.  5729.
  1129.09  994.092  1193.09  1189.09
 -34.9084  25.0916  37.0916 -1.90836
 29.005 29.015 29.025 29.035 29.045 29.055 29.065 29.075 29.085 29.095
 18.105 18.115 18.125 18.135 18.145 18.155 18.165 18.175 18.185 18.195
  2970.37  2922.37  2949.37  3062.37
 12.205 12.215 12.225 12.235 12.245 12.255 12.265 12.275 12.285 12.295
  5513.  5662.  5629.  5616.  5691.  5452.  5458.  5446.  5507.  5630.
  697.477  743.477  732.477  696.477
  273.477  397.477  365.477  339.477
 25.305 25.315 25.325 25.335 25.345 25.355 25.365 25.375 25.385 25.395
  2683.  2839.  2762.  2709.  2701.  2659.  2806.  2845.  2728.  2737.
  2051.6  2009.6  2031.6  2126.6
 -168.401 -161.401 -221.401 -250.401
 35.405 35.415 35.425 35.435 35.445 35.455 35.465 35.475 35.485 35.495
 21.505 21.515 21.525 21.535 21.545 21.555 21.565 21.575 21.585 21.595
 30.605 30.615 30.625 30.635 30.645 30.655 30.665 30.675 30.685 30.695
 37.605 37.615 37.625 37.635 37.645 37.655 37.665 37.675 37.685 37.695
 23.705 23.715 23.725 23.735 23.745 23.755 23.765 23.775 23.785 23.795
 33.805 33.815 33.825 33.835 33.845 33.855 33.865 33.875 33.885 33.895
 39.805 39.815 39.825 39.835 39.845 39.855 39.865 39.875 39.885 39.895
 2911.46 2873.46 2940.46 2916.46 2869.46
 23.105 23.115 23.125 23.135 23.145 23.155 23.165 23.175 23.185 23.195
  2424.  2461.  2506.  2539.  2478.  2479.  2410.  2519.  2492.  2414.
  1169.45  1062.45  977.451  1028.45
 -99.4697 -79.4697 -14.4697  13.5303
  2648.  2565.  2568.  2604.  2656.  2532.  2516.  2622.  2588.  2445.
  713.2  729.2  647.2  605.2
 26.505 26.515 26.525 26.535 26.545 26.555 26.565 26.575 26.585 26.595
  2099.  2128.  2102.  2149.  2071.  2176.  2116.  2151.  2176.  2073.
  195.118  247.118  143.118  229.118
 40.205 40.215 40.225 40.235 40.245 40.255 40.265 40.275 40.285 40.295
 26.405 26.415 26.425 26.435 26.445 26.455 26.465 26.475 26.485 26.495
 28.605 28.615 28.625 28.635 28.645 28.655 28.665 28.675 28.685 28.695
 1905. 1956. 2019. 1862. 1857. 1835. 2008. 1966. 1868. 2015. 1854. 1926.
 22.405 22.415 22.425 22.435 22.445 22.455 22.465 22.475 22.485 22.495
 1888. 1930. 1935. 1939. 1909. 1869. 1935. 1974. 1951. 1940. 1958. 1898.
  22.625  22.635  22.645  22.655  22.665  22.675  22.685  22.695  22.705
  54.935  54.945  54.955  54.965  54.975  54.985  54.995  55.005  55.015
  87.245  87.255  87.265  87.275  87.285  87.295  87.305  87.315  87.325
 119.555 119.565 119.575 119.585 119.595 119.605 119.615 119.625 119.635
 1755. 1629. 1619. 1634. 1773. 1745. 1790. 1801. 1718. 1667. 1582. 1776.
 1880. 1857. 1917. 1855. 1840. 1910. 1850. 1905. 1929. 1868. 1955. 1910.
  239.704  318.704  259.704  238.704
  94.1315  187.131  117.131  6.13149]",787.704,5401.13,123508,462706,0.210687,0.789313,0.127278,0.872722,145.377,147.154